sender_type,sender_id,timestamp,meta,,answer,correct,correctResponse,deg,duration,ended_on,image,response,response_action,time_commit,time_end,time_render,time_run,time_show,time_switch,url
html.Page,0,2023-01-14T04:30:39.565Z,"{""labjs_version"":""20.2.4"",""labjs_build"":{""flavor"":""development"",""commit"":""f5b4a49f956347addd546a832a3327688c2c0fef""},""location"":""https://labjs.felixhenninger.com/api/labjs_preview/index.html"",""userAgent"":""Mozilla/5.0 (Windows NT 10.0; Win64; x64) AppleWebKit/537.36 (KHTML, like Gecko) Chrome/108.0.0.0 Safari/537.36"",""platform"":""Win32"",""language"":""ja-JP"",""locale"":""ja"",""timeZone"":""Etc/GMT-9"",""timezoneOffset"":-540,""screen_width"":1280,""screen_height"":720,""scroll_width"":880,""scroll_height"":760,""window_innerWidth"":880,""window_innerHeight"":808,""devicePixelRatio"":1.125}",,,,,,1558.281,form submission,,,,2633.2,2632.9,991.271,1176.3,1074.619,2540.889,{}
html.Page,1,2023-01-14T04:30:41.443Z,,,,,,,1970.011,form submission,,,,4511.2,4510.9,2524.324,2633.4,2540.889,4440.729,
html.Page,2,2023-01-14T04:30:43.637Z,,,,,,,2263.871,form submission,,,,6704.7,6704.6,4424.276,4511.2,4440.729,6631.645,
html.Page,3,2023-01-14T04:30:45.898Z,,,,,,,2334.455,form submission,,,,8966.3,8966.1,6590.827,6704.8,6631.645,8873.375,
html.Page,4,2023-01-14T04:30:48.813Z,,,,,,,3007.525,form submission,,,,11881.1,11880.9,8858.606,8966.4,8873.375,11789.699,
canvas.Screen,5,2023-01-14T04:30:49.804Z,,,,,,,999.851,timeout,,,,12872.2,12773.202,11773.327,11881.3,11789.699,12789.55,
canvas.Screen,6_0_0,2023-01-14T04:30:50.304Z,,,b,,,270,500.158,timeout,e.jpg,,,13372,13273.118,12773.202,12872.6,12789.55,13289.708,
canvas.Screen,6_0_1,2023-01-14T04:30:51.304Z,,,b,,,270,999.877,timeout,e.jpg,,,14371.8,14273.015,13273.118,13372.2,13289.708,14289.585,
canvas.Screen,6_0_2,2023-01-14T04:30:51.803Z,,,b,,,270,499.718,timeout,e.jpg,,,14871.6,14772.859,14273.015,14372,14289.585,14789.303,
canvas.Screen,6_0_3,2023-01-14T04:30:53.179Z,,,b,TRUE,b,270,1455.897,response,e.jpg,b,keypress(f),16246.8,16245.2,14772.859,14871.9,14789.303,16156.033,
canvas.Screen,6_0_4,2023-01-14T04:30:53.670Z,,,b,,,270,500.179,timeout,e.jpg,,,16738.3,16639.446,16141.603,16248.7,16156.033,16656.212,
flow.Sequence,6_0,2023-01-14T04:30:53.671Z,,,b,,,270,3849.896,completion,e.jpg,,,16738.9,16639.446,12773.202,12872.6,12789.55,16656.212,
canvas.Screen,6_1_0,2023-01-14T04:30:54.170Z,,,d,,,135,499.873,timeout,eR.jpg,,,17238,17139.271,16639.446,16739.2,16656.212,17156.085,
canvas.Screen,6_1_1,2023-01-14T04:30:55.170Z,,,d,,,135,999.509,timeout,eR.jpg,,,18237.9,18139.164,17139.271,17238.2,17156.085,18155.594,
canvas.Screen,6_1_2,2023-01-14T04:30:55.670Z,,,d,,,135,499.897,timeout,eR.jpg,,,18738,18639.259,18139.164,18238,18155.594,18655.491,
canvas.Screen,6_1_3,2023-01-14T04:30:56.374Z,,,d,TRUE,d,135,785.909,response,eR.jpg,d,keypress(j),19441.8,19441.4,18639.259,18738.3,18655.491,19355.449,
canvas.Screen,6_1_4,2023-01-14T04:30:56.870Z,,,d,,,135,499.936,timeout,eR.jpg,,,19937.7,19838.901,19339.336,19442.8,19355.449,19855.385,
flow.Sequence,6_1,2023-01-14T04:30:56.870Z,,,d,,,135,3182.689,completion,eR.jpg,,,19938.1,19838.901,16639.446,16739,16656.212,19855.385,
canvas.Screen,6_2_0,2023-01-14T04:30:57.370Z,,,b,,,180,500.694,timeout,e.jpg,,,20437.7,20339.06,19838.901,19938.3,19855.385,20356.079,
canvas.Screen,6_2_1,2023-01-14T04:30:58.369Z,,,b,,,180,999.098,timeout,e.jpg,,,21437.6,21338.818,20339.06,20437.9,20356.079,21355.177,
canvas.Screen,6_2_2,2023-01-14T04:30:58.869Z,,,b,,,180,500.025,timeout,e.jpg,,,21937.2,21838.568,21338.818,21437.8,21355.177,21855.202,
canvas.Screen,6_2_3,2023-01-14T04:30:59.456Z,,,b,FALSE,b,180,667.798,response,e.jpg,d,keypress(j),22523.9,22523,21838.568,21937.4,21855.202,22438.261,
canvas.Screen,6_2_4,2023-01-14T04:30:59.952Z,,,b,,,180,500.099,timeout,e.jpg,,,23020.5,22921.762,22422.902,22531.6,22438.261,22938.36,
flow.Sequence,6_2,2023-01-14T04:30:59.953Z,,,b,,,180,3066.377,completion,e.jpg,,,23020.8,22921.762,19838.901,19938.3,19855.385,22938.36,
canvas.Screen,6_3_0,2023-01-14T04:31:00.452Z,,,d,,,315,499.928,timeout,eR.jpg,,,23520.3,23421.712,22921.762,23021,22938.36,23438.288,
canvas.Screen,6_3_1,2023-01-14T04:31:01.452Z,,,d,,,315,1000.041,timeout,eR.jpg,,,24520.1,24421.557,23421.712,23520.5,23438.288,24438.329,
canvas.Screen,6_3_2,2023-01-14T04:31:01.952Z,,,d,,,315,499.796,timeout,eR.jpg,,,25020.2,24921.534,24421.557,24520.3,24438.329,24938.125,
canvas.Screen,6_3_3,2023-01-14T04:31:02.985Z,,,d,FALSE,d,315,1114.375,response,eR.jpg,b,keypress(f),26053.5,26052.5,24921.534,25020.4,24938.125,25971.149,
canvas.Screen,6_3_4,2023-01-14T04:31:03.485Z,,,d,,,315,500.074,timeout,eR.jpg,,,26553.3,26454.661,25956.335,26064.7,25971.149,26471.223,
flow.Sequence,6_3,2023-01-14T04:31:03.485Z,,,d,,,315,3516.301,completion,eR.jpg,,,26553.7,26454.661,22921.762,23020.9,22938.36,26471.223,
flow.Loop,6,2023-01-14T04:31:03.486Z,,,,,,,13665.111,completion,,,,26553.8,26454.661,12773.202,12872.5,12789.55,26471.223,
html.Page,7,2023-01-14T04:31:04.833Z,,,,,,,1429.777,form submission,,,,27901.3,27901,26454.661,26553.9,26471.223,27804.346,
canvas.Screen,8,2023-01-14T04:31:05.818Z,,,,,,,1000.081,timeout,,,,28886.4,28787.751,27787.782,27901.4,27804.346,28804.427,
canvas.Screen,9_0_0,2023-01-14T04:31:06.318Z,,,b,,,270,499.867,timeout,e.jpg,,,29386.4,29287.719,28787.751,28886.7,28804.427,29304.294,
canvas.Screen,9_0_1,2023-01-14T04:31:07.320Z,,,b,,,270,999.993,timeout,e.jpg,,,30387.7,30287.564,29287.719,29386.7,29304.294,30304.287,
canvas.Screen,9_0_2,2023-01-14T04:31:07.818Z,,,b,,,270,499.824,timeout,e.jpg,,,30886.1,30787.449,30287.564,30387.9,30304.287,30804.111,
canvas.Screen,9_0_3,2023-01-14T04:31:08.580Z,,,b,FALSE,b,270,843.089,response,e.jpg,d,keypress(j),31647.9,31647.2,30787.449,30886.4,30804.111,31553.738,
canvas.Screen,9_0_4,2023-01-14T04:31:09.067Z,,,b,,,270,500.002,timeout,e.jpg,,,32135.6,32037.089,31537.091,31657.1,31553.738,32053.74,
flow.Sequence,9_0,2023-01-14T04:31:09.068Z,,,b,,,270,3232.662,completion,e.jpg,,,32135.9,32037.089,28787.751,28886.6,28804.427,32053.74,
canvas.Screen,9_1_0,2023-01-14T04:31:09.568Z,,,d,,,225,499.995,timeout,eR.jpg,,,32635.6,32537.108,32037.089,32136.1,32053.74,32553.735,
canvas.Screen,9_1_1,2023-01-14T04:31:10.568Z,,,d,,,225,999.8,timeout,eR.jpg,,,33635.8,33537.089,32537.108,32635.9,32553.735,33553.535,
canvas.Screen,9_1_2,2023-01-14T04:31:11.068Z,,,d,,,225,499.993,timeout,eR.jpg,,,34135.8,34037.19,33537.089,33636,33553.535,34053.528,
canvas.Screen,9_1_3,2023-01-14T04:31:11.651Z,,,d,TRUE,d,225,664.972,response,eR.jpg,d,keypress(j),34719.1,34718.5,34037.19,34135.9,34053.528,34636.698,
canvas.Screen,9_1_4,2023-01-14T04:31:12.151Z,,,d,,,225,500.079,timeout,eR.jpg,,,35218.9,35120.151,34621.175,34724.7,34636.698,35136.777,
flow.Sequence,9_1,2023-01-14T04:31:12.151Z,,,d,,,225,3066.411,completion,eR.jpg,,,35219.2,35120.151,32037.089,32136.1,32053.74,35136.777,
canvas.Screen,9_2_0,2023-01-14T04:31:12.651Z,,,d,,,315,499.929,timeout,eR.jpg,,,35718.7,35620.209,35120.151,35219.3,35136.777,35636.706,
canvas.Screen,9_2_1,2023-01-14T04:31:13.650Z,,,d,,,315,999.85,timeout,eR.jpg,,,36718.6,36620.04,35620.209,35718.9,35636.706,36636.556,
canvas.Screen,9_2_2,2023-01-14T04:31:14.150Z,,,d,,,315,499.936,timeout,eR.jpg,,,37218.6,37119.948,36620.04,36718.8,36636.556,37136.492,
canvas.Screen,9_2_3,2023-01-14T04:31:14.988Z,,,d,FALSE,d,315,919.208,response,eR.jpg,b,keypress(f),38056.6,38055.7,37119.948,37218.8,37136.492,37969.559,
canvas.Screen,9_2_4,2023-01-14T04:31:15.485Z,,,d,,,315,499.936,timeout,eR.jpg,,,38553.2,38453.044,37954.421,38061.9,37969.559,38469.495,
flow.Sequence,9_2,2023-01-14T04:31:15.485Z,,,d,,,315,3316.267,completion,eR.jpg,,,38553.5,38453.044,35120.151,35219.3,35136.777,38469.495,
canvas.Screen,9_3_0,2023-01-14T04:31:15.983Z,,,b,,,180,499.969,timeout,e.jpg,,,39051.6,38953.001,38453.044,38553.6,38469.495,38969.464,
canvas.Screen,9_3_1,2023-01-14T04:31:16.983Z,,,b,,,180,999.864,timeout,e.jpg,,,40051.4,39952.887,38953.001,39051.9,38969.464,39969.328,
canvas.Screen,9_3_2,2023-01-14T04:31:17.483Z,,,b,,,180,500.166,timeout,e.jpg,,,40551.6,40452.878,39952.887,40051.6,39969.328,40469.494,
canvas.Screen,9_3_3,2023-01-14T04:31:18.490Z,,,b,TRUE,b,180,1087.306,response,e.jpg,b,keypress(f),41557.8,41556.8,40452.878,40551.8,40469.494,41469.103,
canvas.Screen,9_3_4,2023-01-14T04:31:18.983Z,,,b,,,180,500.159,timeout,e.jpg,,,42051.3,41952.522,41453.543,41560.2,41469.103,41969.262,
flow.Sequence,9_3,2023-01-14T04:31:18.983Z,,,b,,,180,3483.027,completion,e.jpg,,,42051.7,41952.522,38453.044,38553.6,38469.495,41969.262,
canvas.Screen,9_4_0,2023-01-14T04:31:19.483Z,,,d,,,180,499.919,timeout,eR.jpg,,,42551.3,42452.518,41952.522,42051.8,41969.262,42469.181,
canvas.Screen,9_4_1,2023-01-14T04:31:20.483Z,,,d,,,180,999.735,timeout,eR.jpg,,,43551.1,43452.398,42452.518,42551.4,42469.181,43468.916,
canvas.Screen,9_4_2,2023-01-14T04:31:20.983Z,,,d,,,180,500.055,timeout,eR.jpg,,,44051,43952.359,43452.398,43551.4,43468.916,43968.971,
canvas.Screen,9_4_3,2023-01-14T04:31:22.050Z,,,d,TRUE,d,180,1148.729,response,eR.jpg,d,keypress(j),45118.1,45117.7,43952.359,44051.2,43968.971,45035.277,
canvas.Screen,9_4_4,2023-01-14T04:31:22.549Z,,,d,,,180,500.353,timeout,eR.jpg,,,45617.5,45518.802,45018.548,45125.4,45035.277,45535.63,
flow.Sequence,9_4,2023-01-14T04:31:22.550Z,,,d,,,180,3549.54,completion,eR.jpg,,,45617.9,45518.802,41952.522,42051.7,41969.262,45535.63,
canvas.Screen,9_5_0,2023-01-14T04:31:23.049Z,,,d,,,45,499.599,timeout,eR.jpg,,,46117.3,46018.81,45518.802,45618.1,45535.63,46035.229,
canvas.Screen,9_5_1,2023-01-14T04:31:24.049Z,,,d,,,45,999.8,timeout,eR.jpg,,,47117.2,47018.575,46018.81,46117.5,46035.229,47035.029,
canvas.Screen,9_5_2,2023-01-14T04:31:24.549Z,,,d,,,45,500.095,timeout,eR.jpg,,,47617,47518.489,47018.575,47117.3,47035.029,47535.124,
canvas.Screen,9_5_3,2023-01-14T04:31:25.230Z,,,d,TRUE,d,45,762.776,response,eR.jpg,d,keypress(j),48298.4,48297.9,47518.489,47617.3,47535.124,48218.258,
canvas.Screen,9_5_4,2023-01-14T04:31:25.732Z,,,d,,,45,500.18,timeout,eR.jpg,,,48800.3,48701.693,48201.963,48303.8,48218.258,48718.438,
flow.Sequence,9_5,2023-01-14T04:31:25.732Z,,,d,,,45,3166.063,completion,eR.jpg,,,48800.6,48701.693,45518.802,45618,45535.63,48718.438,
canvas.Screen,9_6_0,2023-01-14T04:31:26.235Z,,,b,,,90,499.663,timeout,e.jpg,,,49302.9,49201.596,48701.693,48800.7,48718.438,49218.101,
canvas.Screen,9_6_1,2023-01-14T04:31:27.232Z,,,b,,,90,1000.139,timeout,e.jpg,,,50300,50201.37,49201.596,49303.4,49218.101,50218.24,
canvas.Screen,9_6_2,2023-01-14T04:31:27.732Z,,,b,,,90,499.815,timeout,e.jpg,,,50800,50701.446,50201.37,50300.2,50218.24,50718.055,
canvas.Screen,9_6_3,2023-01-14T04:31:28.541Z,,,b,TRUE,b,90,890.445,response,e.jpg,b,keypress(f),51608.9,51608.5,50701.446,50800.3,50718.055,51517.796,
canvas.Screen,9_6_4,2023-01-14T04:31:29.032Z,,,b,,,90,500.123,timeout,e.jpg,,,52099.9,52001.2,51497.015,51609.7,51517.796,52017.919,
flow.Sequence,9_6,2023-01-14T04:31:29.032Z,,,b,,,90,3282.762,completion,e.jpg,,,52100.2,52001.2,48701.693,48800.7,48718.438,52017.919,
canvas.Screen,9_7_0,2023-01-14T04:31:29.532Z,,,b,,,315,499.937,timeout,e.jpg,,,52599.8,52501.231,52001.2,52100.3,52017.919,52517.856,
canvas.Screen,9_7_1,2023-01-14T04:31:30.532Z,,,b,,,315,999.757,timeout,e.jpg,,,53599.8,53501.014,52501.231,52599.9,52517.856,53517.613,
canvas.Screen,9_7_2,2023-01-14T04:31:31.032Z,,,b,,,315,499.835,timeout,e.jpg,,,54099.8,54001.151,53501.014,53600.1,53517.613,54017.448,
canvas.Screen,9_7_3,2023-01-14T04:31:31.746Z,,,b,TRUE,b,315,795.852,response,e.jpg,b,keypress(f),54813.9,54813.3,54001.151,54100,54017.448,54734.089,
canvas.Screen,9_7_4,2023-01-14T04:31:32.248Z,,,b,,,315,500.059,timeout,e.jpg,,,55316.2,55217.448,54717.342,54819.2,54734.089,55234.148,
flow.Sequence,9_7,2023-01-14T04:31:32.248Z,,,b,,,315,3199.529,completion,e.jpg,,,55316.5,55217.448,52001.2,52100.3,52017.919,55234.148,
canvas.Screen,9_8_0,2023-01-14T04:31:32.748Z,,,b,,,225,499.929,timeout,e.jpg,,,55816.1,55717.447,55217.448,55316.6,55234.148,55734.077,
canvas.Screen,9_8_1,2023-01-14T04:31:33.748Z,,,b,,,225,1000.004,timeout,e.jpg,,,56816,56717.398,55717.447,55816.4,55734.077,56734.081,
canvas.Screen,9_8_2,2023-01-14T04:31:34.248Z,,,b,,,225,499.838,timeout,e.jpg,,,57315.8,57217.215,56717.398,56816.3,56734.081,57233.919,
canvas.Screen,9_8_3,2023-01-14T04:31:34.968Z,,,b,TRUE,b,225,801.081,response,e.jpg,b,keypress(f),58036,58035,57217.215,57315.9,57233.919,57950.456,
canvas.Screen,9_8_4,2023-01-14T04:31:35.465Z,,,b,,,225,499.96,timeout,e.jpg,,,58532.6,58433.757,57933.474,58036.7,57950.456,58450.416,
flow.Sequence,9_8,2023-01-14T04:31:35.465Z,,,b,,,225,3199.609,completion,e.jpg,,,58533,58433.757,55217.448,55316.6,55234.148,58450.416,
canvas.Screen,9_9_0,2023-01-14T04:31:35.965Z,,,b,,,135,499.739,timeout,e.jpg,,,59032.4,58933.844,58433.757,58533.2,58450.416,58950.155,
canvas.Screen,9_9_1,2023-01-14T04:31:36.966Z,,,b,,,135,999.983,timeout,e.jpg,,,60033.5,59933.607,58933.844,59032.6,58950.155,59950.138,
canvas.Screen,9_9_2,2023-01-14T04:31:37.464Z,,,b,,,135,499.876,timeout,e.jpg,,,60532.2,60433.554,59933.607,60033.8,59950.138,60450.014,
canvas.Screen,9_9_3,2023-01-14T04:31:38.156Z,,,b,TRUE,b,135,772.486,response,e.jpg,b,keypress(f),61223.8,61222.5,60433.554,60532.4,60450.014,61133.134,
canvas.Screen,9_9_4,2023-01-14T04:31:38.647Z,,,b,,,135,500.019,timeout,e.jpg,,,61715.3,61616.672,61117.784,61229,61133.134,61633.153,
flow.Sequence,9_9,2023-01-14T04:31:38.648Z,,,b,,,135,3166.256,completion,e.jpg,,,61715.5,61616.672,58433.757,58533.2,58450.416,61633.153,
canvas.Screen,9_10_0,2023-01-14T04:31:39.147Z,,,d,,,90,500.246,timeout,eR.jpg,,,62215.1,62116.495,61616.672,61715.7,61633.153,62133.399,
canvas.Screen,9_10_1,2023-01-14T04:31:40.147Z,,,d,,,90,999.884,timeout,eR.jpg,,,63215,63116.427,62116.495,62215.4,62133.399,63133.283,
canvas.Screen,9_10_2,2023-01-14T04:31:40.647Z,,,d,,,90,499.683,timeout,eR.jpg,,,63715,63616.333,63116.427,63215.1,63133.283,63632.966,
canvas.Screen,9_10_3,2023-01-14T04:31:41.298Z,,,d,TRUE,d,90,732.234,response,eR.jpg,d,keypress(j),64366,64365.2,63616.333,63715.2,63632.966,64282.748,
canvas.Screen,9_10_4,2023-01-14T04:31:41.797Z,,,d,,,90,499.916,timeout,eR.jpg,,,64864.9,64766.217,64270.967,64371.4,64282.748,64782.664,
flow.Sequence,9_10,2023-01-14T04:31:41.797Z,,,d,,,90,3133.064,completion,eR.jpg,,,64865.2,64766.217,61616.672,61715.6,61633.153,64782.664,
canvas.Screen,9_11_0,2023-01-14T04:31:42.297Z,,,b,,,0,500.014,timeout,e.jpg,,,65365,65266.368,64766.217,64865.4,64782.664,65282.678,
canvas.Screen,9_11_1,2023-01-14T04:31:43.297Z,,,b,,,0,1000.063,timeout,e.jpg,,,66364.7,66266.024,65266.368,65365.2,65282.678,66282.741,
canvas.Screen,9_11_2,2023-01-14T04:31:43.797Z,,,b,,,0,499.84,timeout,e.jpg,,,66864.7,66766.137,66266.024,66364.9,66282.741,66782.581,
canvas.Screen,9_11_3,2023-01-14T04:31:44.350Z,,,b,TRUE,b,0,634.119,response,e.jpg,b,keypress(f),67417.6,67416.7,66766.137,66864.9,66782.581,67332.333,
canvas.Screen,9_11_4,2023-01-14T04:31:44.847Z,,,b,,,0,500.149,timeout,e.jpg,,,67914.7,67816.099,67316.692,67420.1,67332.333,67832.482,
flow.Sequence,9_11,2023-01-14T04:31:44.847Z,,,b,,,0,3033.435,completion,e.jpg,,,67915.1,67816.099,64766.217,64865.4,64782.664,67832.482,
canvas.Screen,9_12_0,2023-01-14T04:31:45.347Z,,,d,,,135,499.797,timeout,eR.jpg,,,68415.1,68316.006,67816.099,67915.2,67832.482,68332.279,
canvas.Screen,9_12_1,2023-01-14T04:31:46.347Z,,,d,,,135,999.985,timeout,eR.jpg,,,69414.6,69316.012,68316.006,68415.3,68332.279,69332.264,
canvas.Screen,9_12_2,2023-01-14T04:31:46.847Z,,,d,,,135,499.938,timeout,eR.jpg,,,69915.2,69815.97,69316.012,69414.8,69332.264,69832.202,
canvas.Screen,9_12_3,2023-01-14T04:31:47.444Z,,,d,TRUE,d,135,679.398,response,eR.jpg,d,keypress(j),70512.1,70511.6,69815.97,69915.6,69832.202,70432.075,
canvas.Screen,9_12_4,2023-01-14T04:31:47.946Z,,,d,,,135,499.935,timeout,eR.jpg,,,71014.3,70915.719,70416.309,70517.5,70432.075,70932.01,
flow.Sequence,9_12,2023-01-14T04:31:47.947Z,,,d,,,135,3083.237,completion,eR.jpg,,,71014.6,70915.719,67816.099,67915.2,67832.482,70932.01,
canvas.Screen,9_13_0,2023-01-14T04:31:48.446Z,,,d,,,0,499.756,timeout,eR.jpg,,,71514,71415.365,70915.719,71014.8,70932.01,71431.766,
canvas.Screen,9_13_1,2023-01-14T04:31:49.446Z,,,d,,,0,999.972,timeout,eR.jpg,,,72513.6,72415.186,71415.365,71514.2,71431.766,72431.738,
canvas.Screen,9_13_2,2023-01-14T04:31:49.946Z,,,d,,,0,499.969,timeout,eR.jpg,,,73013.7,72915.155,72415.186,72513.7,72431.738,72931.707,
canvas.Screen,9_13_3,2023-01-14T04:31:50.507Z,,,d,TRUE,d,0,642.193,response,eR.jpg,d,keypress(j),73574.9,73573.9,72915.155,73014,72931.707,73481.521,
canvas.Screen,9_13_4,2023-01-14T04:31:50.996Z,,,d,,,0,500.111,timeout,eR.jpg,,,74063.6,73965.093,73465.024,73576.6,73481.521,73981.632,
flow.Sequence,9_13,2023-01-14T04:31:50.996Z,,,d,,,0,3033.083,completion,eR.jpg,,,74063.9,73965.093,70915.719,71014.7,70932.01,73981.632,
canvas.Screen,9_14_0,2023-01-14T04:31:51.496Z,,,b,,,45,499.931,timeout,e.jpg,,,74563.5,74464.933,73965.093,74064.1,73981.632,74481.563,
canvas.Screen,9_14_1,2023-01-14T04:31:52.496Z,,,b,,,45,999.745,timeout,e.jpg,,,75563.5,75464.809,74464.933,74563.7,74481.563,75481.308,
canvas.Screen,9_14_2,2023-01-14T04:31:52.995Z,,,b,,,45,499.953,timeout,e.jpg,,,76063.2,75964.673,75464.809,75563.9,75481.308,75981.261,
canvas.Screen,9_14_3,2023-01-14T04:31:53.453Z,,,b,TRUE,b,45,539.039,response,e.jpg,b,keypress(f),76520.9,76520.3,75964.673,76063.4,75981.261,76461.177,
canvas.Screen,9_14_4,2023-01-14T04:31:53.979Z,,,b,,,45,503.495,timeout,e.jpg,,,77046.7,76948.016,76414.828,76528,76461.177,76964.672,
flow.Sequence,9_14,2023-01-14T04:31:53.979Z,,,b,,,45,2966.384,completion,e.jpg,,,77047,76948.016,73965.093,74064,73981.632,76964.672,
canvas.Screen,9_15_0,2023-01-14T04:31:54.480Z,,,d,,,270,499.889,timeout,eR.jpg,,,77547.4,77448.012,76948.016,77047.2,76964.672,77464.561,
canvas.Screen,9_15_1,2023-01-14T04:31:55.478Z,,,d,,,270,999.804,timeout,eR.jpg,,,78546.3,78447.754,77448.012,77547.5,77464.561,78464.365,
canvas.Screen,9_15_2,2023-01-14T04:31:55.979Z,,,d,,,270,499.792,timeout,eR.jpg,,,79046.4,78947.806,78447.754,78546.5,78464.365,78964.157,
canvas.Screen,9_15_3,2023-01-14T04:31:56.602Z,,,d,TRUE,d,270,704.243,response,eR.jpg,d,keypress(j),79669.4,79668.4,78947.806,79046.7,78964.157,79580.753,
canvas.Screen,9_15_4,2023-01-14T04:31:57.095Z,,,d,,,270,500.081,timeout,eR.jpg,,,80162.9,80064.226,79556.887,79670,79580.753,80080.834,
flow.Sequence,9_15,2023-01-14T04:31:57.095Z,,,d,,,270,3099.554,completion,eR.jpg,,,80163.2,80064.226,76948.016,77047.1,76964.672,80080.834,
flow.Loop,9,2023-01-14T04:31:57.096Z,,,,,,,51259.799,completion,,,,80163.5,80064.226,28787.751,28886.5,28804.427,80080.834,
canvas.Screen,10_0_0,2023-01-14T04:31:57.595Z,,,b,,,180,500.037,timeout,e.jpg,,,80662.5,80564.107,80064.226,80163.6,80080.834,80580.871,
canvas.Screen,10_0_1,2023-01-14T04:31:58.595Z,,,b,,,180,999.848,timeout,e.jpg,,,81662.6,81564.034,80564.107,80662.6,80580.871,81580.719,
canvas.Screen,10_0_2,2023-01-14T04:31:59.095Z,,,b,,,180,499.924,timeout,e.jpg,,,82162.6,82064.019,81564.034,81662.8,81580.719,82080.643,
canvas.Screen,10_0_3,2023-01-14T04:31:59.746Z,,,b,TRUE,b,180,732.257,response,e.jpg,b,keypress(f),82813.9,82812.9,82064.019,82162.9,82080.643,82730.323,
canvas.Screen,10_0_4,2023-01-14T04:32:00.245Z,,,b,,,180,500.199,timeout,e.jpg,,,83312.5,83213.898,82713.765,82821,82730.323,83230.522,
flow.Sequence,10_0,2023-01-14T04:32:00.245Z,,,b,,,180,3133.064,completion,e.jpg,,,83312.8,83213.898,80064.226,80163.6,80080.834,83230.522,
canvas.Screen,10_1_0,2023-01-14T04:32:00.745Z,,,d,,,90,499.868,timeout,eR.jpg,,,83812.3,83713.803,83213.898,83313,83230.522,83730.39,
canvas.Screen,10_1_1,2023-01-14T04:32:01.744Z,,,d,,,90,999.787,timeout,eR.jpg,,,84812.2,84713.672,83713.803,83812.6,83730.39,84730.177,
canvas.Screen,10_1_2,2023-01-14T04:32:02.244Z,,,d,,,90,500.046,timeout,eR.jpg,,,85312.2,85213.623,84713.672,84812.4,84730.177,85230.223,
canvas.Screen,10_1_3,2023-01-14T04:32:02.705Z,,,d,TRUE,d,90,542.177,response,eR.jpg,d,keypress(j),85772.9,85772.4,85213.623,85312.4,85230.223,85679.903,
canvas.Screen,10_1_4,2023-01-14T04:32:03.194Z,,,d,,,90,500.12,timeout,eR.jpg,,,86262,86163.398,85669.69,85773.4,85679.903,86180.023,
flow.Sequence,10_1,2023-01-14T04:32:03.194Z,,,d,,,90,2932.876,completion,eR.jpg,,,86262.3,86163.398,83213.898,83313,83230.522,86180.023,
canvas.Screen,10_2_0,2023-01-14T04:32:03.694Z,,,b,,,0,499.892,timeout,e.jpg,,,86762,86663.398,86163.398,86262.5,86180.023,86679.915,
canvas.Screen,10_2_1,2023-01-14T04:32:04.694Z,,,b,,,0,999.79,timeout,e.jpg,,,87761.8,87663.19,86663.398,86762.1,86679.915,87679.705,
canvas.Screen,10_2_2,2023-01-14T04:32:05.194Z,,,b,,,0,500.159,timeout,e.jpg,,,88261.7,88163.117,87663.19,87761.9,87679.705,88179.864,
canvas.Screen,10_2_3,2023-01-14T04:32:05.578Z,,,b,TRUE,b,0,464.436,response,e.jpg,b,keypress(f),88646.2,88644.3,88163.117,88262,88179.864,88562.874,
canvas.Screen,10_2_4,2023-01-14T04:32:06.077Z,,,b,,,0,499.959,timeout,e.jpg,,,89144.9,89046.248,88546.428,88655.5,88562.874,89062.833,
flow.Sequence,10_2,2023-01-14T04:32:06.077Z,,,b,,,0,2866.225,completion,e.jpg,,,89145.2,89046.248,86163.398,86262.4,86180.023,89062.833,
canvas.Screen,10_3_0,2023-01-14T04:32:06.577Z,,,b,,,315,500.147,timeout,e.jpg,,,89644.9,89546.216,89046.248,89145.4,89062.833,89562.98,
canvas.Screen,10_3_1,2023-01-14T04:32:07.577Z,,,b,,,315,999.754,timeout,e.jpg,,,90644.7,90546.146,89546.216,89645,89562.98,90562.734,
canvas.Screen,10_3_2,2023-01-14T04:32:08.077Z,,,b,,,315,499.914,timeout,e.jpg,,,91145.2,91046.562,90546.146,90645,90562.734,91062.648,
canvas.Screen,10_3_3,2023-01-14T04:32:08.467Z,,,b,TRUE,b,315,471.452,response,e.jpg,b,keypress(f),91535.1,91534.1,91046.562,91145.4,91062.648,91445.839,
canvas.Screen,10_3_4,2023-01-14T04:32:08.960Z,,,b,,,315,499.965,timeout,e.jpg,,,92028.1,91929.357,91429.96,91537.6,91445.839,91945.804,
flow.Sequence,10_3,2023-01-14T04:32:08.961Z,,,b,,,315,2866.524,completion,e.jpg,,,92028.4,91929.357,89046.248,89145.3,89062.833,91945.804,
canvas.Screen,10_4_0,2023-01-14T04:32:09.461Z,,,d,,,225,499.963,timeout,eR.jpg,,,92528.6,92429.214,91929.357,92028.6,91945.804,92445.767,
canvas.Screen,10_4_1,2023-01-14T04:32:10.460Z,,,d,,,225,1000.011,timeout,eR.jpg,,,93527.8,93429.183,92429.214,92529,92445.767,93445.778,
canvas.Screen,10_4_2,2023-01-14T04:32:10.960Z,,,d,,,225,499.995,timeout,eR.jpg,,,94028.2,93928.98,93429.183,93528,93445.778,93945.773,
canvas.Screen,10_4_3,2023-01-14T04:32:11.707Z,,,d,TRUE,d,225,828.227,response,eR.jpg,d,keypress(j),94774.4,94774,93928.98,94028.6,93945.773,94695.472,
canvas.Screen,10_4_4,2023-01-14T04:32:12.210Z,,,d,,,225,500.294,timeout,eR.jpg,,,95277.7,95178.939,94680.044,94779.7,94695.472,95195.766,
flow.Sequence,10_4,2023-01-14T04:32:12.210Z,,,d,,,225,3233.135,completion,eR.jpg,,,95277.9,95178.939,91929.357,92028.5,91945.804,95195.766,
canvas.Screen,10_5_0,2023-01-14T04:32:12.710Z,,,d,,,270,499.585,timeout,eR.jpg,,,95777.6,95678.883,95178.939,95278.2,95195.766,95695.351,
canvas.Screen,10_5_1,2023-01-14T04:32:13.710Z,,,d,,,270,1000.072,timeout,eR.jpg,,,96777.4,96678.701,95678.883,95777.7,95695.351,96695.423,
canvas.Screen,10_5_2,2023-01-14T04:32:14.209Z,,,d,,,270,499.681,timeout,eR.jpg,,,97277.2,97178.564,96678.701,96777.5,96695.423,97195.104,
canvas.Screen,10_5_3,2023-01-14T04:32:14.681Z,,,d,TRUE,d,270,552.996,response,eR.jpg,d,keypress(j),97749,97748.1,97178.564,97277.3,97195.104,97661.653,
canvas.Screen,10_5_4,2023-01-14T04:32:15.176Z,,,d,,,270,499.977,timeout,eR.jpg,,,98243.9,98145.139,97645.4,97750.7,97661.653,98161.63,
flow.Sequence,10_5,2023-01-14T04:32:15.176Z,,,d,,,270,2949.373,completion,eR.jpg,,,98244.2,98145.139,95178.939,95278.1,95195.766,98161.63,
canvas.Screen,10_6_0,2023-01-14T04:32:15.676Z,,,d,,,45,500.101,timeout,eR.jpg,,,98743.9,98645.143,98145.139,98244.6,98161.63,98661.731,
canvas.Screen,10_6_1,2023-01-14T04:32:16.676Z,,,d,,,45,999.779,timeout,eR.jpg,,,99743.5,99644.971,98645.143,98744.1,98661.731,99661.51,
canvas.Screen,10_6_2,2023-01-14T04:32:17.176Z,,,d,,,45,499.981,timeout,eR.jpg,,,100243.5,100144.971,99644.971,99743.7,99661.51,100161.491,
canvas.Screen,10_6_3,2023-01-14T04:32:17.788Z,,,d,TRUE,d,45,693.709,response,eR.jpg,d,keypress(j),100856.1,100855.2,100144.971,100243.8,100161.491,100778.045,
canvas.Screen,10_6_4,2023-01-14T04:32:18.292Z,,,d,,,45,499.918,timeout,eR.jpg,,,101360,101261.466,100761.726,100866.2,100778.045,101277.963,
flow.Sequence,10_6,2023-01-14T04:32:18.292Z,,,d,,,45,3099.836,completion,eR.jpg,,,101360.3,101261.466,98145.139,98244.4,98161.63,101277.963,
canvas.Screen,10_7_0,2023-01-14T04:32:18.792Z,,,d,,,135,499.905,timeout,eR.jpg,,,101859.9,101761.284,101261.466,101360.5,101277.963,101777.868,
canvas.Screen,10_7_1,2023-01-14T04:32:19.792Z,,,d,,,135,999.902,timeout,eR.jpg,,,102859.9,102761.158,101761.284,101860.2,101777.868,102777.77,
canvas.Screen,10_7_2,2023-01-14T04:32:20.292Z,,,d,,,135,499.94,timeout,eR.jpg,,,103359.8,103261.105,102761.158,102860,102777.77,103277.71,
canvas.Screen,10_7_3,2023-01-14T04:32:20.991Z,,,d,TRUE,d,135,779.99,response,eR.jpg,d,keypress(j),104058.6,104057.7,103261.105,103360,103277.71,103977.484,
canvas.Screen,10_7_4,2023-01-14T04:32:21.492Z,,,d,,,135,499.994,timeout,eR.jpg,,,104559.5,104460.978,103947.025,104061.1,103977.484,104477.478,
flow.Sequence,10_7,2023-01-14T04:32:21.492Z,,,d,,,135,3183.015,completion,eR.jpg,,,104559.8,104460.978,101261.466,101360.4,101277.963,104477.478,
canvas.Screen,10_8_0,2023-01-14T04:32:21.992Z,,,b,,,90,500.169,timeout,e.jpg,,,105059.6,104960.937,104460.978,104560,104477.478,104977.647,
canvas.Screen,10_8_1,2023-01-14T04:32:22.992Z,,,b,,,90,999.75,timeout,e.jpg,,,106059.5,105960.908,104960.937,105060,104977.647,105977.397,
canvas.Screen,10_8_2,2023-01-14T04:32:23.491Z,,,b,,,90,500.105,timeout,e.jpg,,,106559.2,106460.781,105960.908,106059.7,105977.397,106477.502,
canvas.Screen,10_8_3,2023-01-14T04:32:23.951Z,,,b,TRUE,b,90,540.698,response,e.jpg,b,keypress(f),107019.1,107018.2,106460.781,106559.4,106477.502,106943.842,
canvas.Screen,10_8_4,2023-01-14T04:32:24.458Z,,,b,,,90,500.064,timeout,e.jpg,,,107525.5,107427.16,106927.259,107030.5,106943.842,107443.906,
flow.Sequence,10_8,2023-01-14T04:32:24.458Z,,,b,,,90,2949.682,completion,e.jpg,,,107525.7,107427.16,104460.978,104560,104477.478,107443.906,
canvas.Screen,10_9_0,2023-01-14T04:32:24.958Z,,,d,,,0,499.809,timeout,eR.jpg,,,108025.5,107927.225,107427.16,107525.7,107443.906,107943.715,
canvas.Screen,10_9_1,2023-01-14T04:32:25.958Z,,,d,,,0,999.854,timeout,eR.jpg,,,109025.7,108927.076,107927.225,108025.6,107943.715,108943.569,
canvas.Screen,10_9_2,2023-01-14T04:32:26.458Z,,,d,,,0,500.07,timeout,eR.jpg,,,109525.6,109427.11,108927.076,109026,108943.569,109443.639,
canvas.Screen,10_9_3,2023-01-14T04:32:26.940Z,,,d,TRUE,d,0,563.261,response,eR.jpg,d,keypress(j),110008,110006.9,109427.11,109525.8,109443.639,109926.868,
canvas.Screen,10_9_4,2023-01-14T04:32:27.441Z,,,d,,,0,500.056,timeout,eR.jpg,,,110508.9,110410.207,109911.077,110009.1,109926.868,110426.924,
flow.Sequence,10_9,2023-01-14T04:32:27.441Z,,,d,,,0,2966.301,completion,eR.jpg,,,110509.3,110410.207,107427.16,107525.7,107443.906,110426.924,
canvas.Screen,10_10_0,2023-01-14T04:32:27.941Z,,,b,,,225,499.746,timeout,e.jpg,,,111008.7,110910.148,110410.207,110509.4,110426.924,110926.67,
canvas.Screen,10_10_1,2023-01-14T04:32:28.941Z,,,b,,,225,999.903,timeout,e.jpg,,,112008.6,111910.034,110910.148,111009,110926.67,111926.573,
canvas.Screen,10_10_2,2023-01-14T04:32:29.441Z,,,b,,,225,499.826,timeout,e.jpg,,,112508.7,112410.107,111910.034,112008.8,111926.573,112426.399,
canvas.Screen,10_10_3,2023-01-14T04:32:30.022Z,,,b,TRUE,b,225,662.501,response,e.jpg,b,keypress(f),113089.9,113088.9,112410.107,112509,112426.399,113009.666,
canvas.Screen,10_10_4,2023-01-14T04:32:30.525Z,,,b,,,225,500.143,timeout,e.jpg,,,113592.9,113493.208,112994.121,113095.4,113009.666,113509.809,
flow.Sequence,10_10,2023-01-14T04:32:30.525Z,,,b,,,225,3066.284,completion,e.jpg,,,113593.2,113493.208,110410.207,110509.3,110426.924,113509.809,
canvas.Screen,10_11_0,2023-01-14T04:32:31.024Z,,,b,,,135,499.78,timeout,e.jpg,,,114091.6,113993.032,113493.208,113593.4,113509.809,114009.589,
canvas.Screen,10_11_1,2023-01-14T04:32:32.024Z,,,b,,,135,999.831,timeout,e.jpg,,,115091.5,114993.049,113993.032,114091.8,114009.589,115009.42,
canvas.Screen,10_11_2,2023-01-14T04:32:32.524Z,,,b,,,135,499.957,timeout,e.jpg,,,115591.5,115492.863,114993.049,115091.9,115009.42,115509.377,
canvas.Screen,10_11_3,2023-01-14T04:32:32.994Z,,,b,TRUE,b,135,552.023,response,e.jpg,b,keypress(f),116061.8,116061.4,115492.863,115591.7,115509.377,115975.936,
canvas.Screen,10_11_4,2023-01-14T04:32:33.490Z,,,b,,,135,500.012,timeout,e.jpg,,,116558.1,116459.336,115959.759,116062.3,115975.936,116475.948,
flow.Sequence,10_11,2023-01-14T04:32:33.491Z,,,b,,,135,2949.527,completion,e.jpg,,,116558.4,116459.336,113493.208,113593.4,113509.809,116475.948,
canvas.Screen,10_12_0,2023-01-14T04:32:33.990Z,,,d,,,315,499.855,timeout,eR.jpg,,,117058,116959.313,116459.336,116558.6,116475.948,116975.803,
canvas.Screen,10_12_1,2023-01-14T04:32:34.990Z,,,d,,,315,999.94,timeout,eR.jpg,,,118057.8,117959.187,116959.313,117058.2,116975.803,117975.743,
canvas.Screen,10_12_2,2023-01-14T04:32:35.489Z,,,d,,,315,499.838,timeout,eR.jpg,,,118557.8,118459.11,117959.187,118058.1,117975.743,118475.581,
canvas.Screen,10_12_3,2023-01-14T04:32:36.065Z,,,d,TRUE,d,315,656.519,response,eR.jpg,d,keypress(j),119133.1,119132.1,118459.11,118557.9,118475.581,119059.103,
canvas.Screen,10_12_4,2023-01-14T04:32:36.573Z,,,d,,,315,499.925,timeout,eR.jpg,,,119641.1,119542.363,119025.564,119139.5,119059.103,119559.028,
flow.Sequence,10_12,2023-01-14T04:32:36.573Z,,,d,,,315,3066.415,completion,eR.jpg,,,119641.5,119542.363,116459.336,116558.5,116475.948,119559.028,
canvas.Screen,10_13_0,2023-01-14T04:32:37.073Z,,,b,,,270,499.632,timeout,e.jpg,,,120141,120042.337,119542.363,119641.6,119559.028,120058.66,
canvas.Screen,10_13_1,2023-01-14T04:32:38.072Z,,,b,,,270,999.941,timeout,e.jpg,,,121140.7,121042.165,120042.337,120141.2,120058.66,121058.601,
canvas.Screen,10_13_2,2023-01-14T04:32:38.572Z,,,b,,,270,500.065,timeout,e.jpg,,,121640.7,121542.184,121042.165,121141,121058.601,121558.666,
canvas.Screen,10_13_3,2023-01-14T04:32:39.034Z,,,b,TRUE,b,270,542.734,response,e.jpg,b,keypress(f),122101.9,122101.4,121542.184,121641,121558.666,122008.443,
canvas.Screen,10_13_4,2023-01-14T04:32:39.522Z,,,b,,,270,500.193,timeout,e.jpg,,,122590.6,122491.889,121992.086,122102.7,122008.443,122508.636,
flow.Sequence,10_13,2023-01-14T04:32:39.523Z,,,b,,,270,2932.861,completion,e.jpg,,,122590.8,122491.889,119542.363,119641.6,119559.028,122508.636,
canvas.Screen,10_14_0,2023-01-14T04:32:40.024Z,,,d,,,180,499.786,timeout,eR.jpg,,,123092.8,122991.916,122491.889,122591,122508.636,123008.422,
canvas.Screen,10_14_1,2023-01-14T04:32:41.023Z,,,d,,,180,999.908,timeout,eR.jpg,,,124091.3,123991.723,122991.916,123093.9,123008.422,124008.33,
canvas.Screen,10_14_2,2023-01-14T04:32:41.522Z,,,d,,,180,499.917,timeout,eR.jpg,,,124590.8,124491.762,123991.723,124091.6,124008.33,124508.247,
canvas.Screen,10_14_3,2023-01-14T04:32:42.127Z,,,d,TRUE,d,180,685.753,response,eR.jpg,d,keypress(j),125195.1,125194,124491.762,124591.1,124508.247,125124.892,
canvas.Screen,10_14_4,2023-01-14T04:32:42.639Z,,,d,,,180,499.778,timeout,eR.jpg,,,125707,125608.205,125100.862,125207.5,125124.892,125624.67,
flow.Sequence,10_14,2023-01-14T04:32:42.639Z,,,d,,,180,3099.569,completion,eR.jpg,,,125707.3,125608.205,122491.889,122591,122508.636,125624.67,
canvas.Screen,10_15_0,2023-01-14T04:32:43.138Z,,,b,,,45,499.896,timeout,e.jpg,,,126206.6,126108.021,125608.205,125707.5,125624.67,126124.566,
canvas.Screen,10_15_1,2023-01-14T04:32:44.138Z,,,b,,,45,1000.141,timeout,e.jpg,,,127206.6,127107.972,126108.021,126206.8,126124.566,127124.707,
canvas.Screen,10_15_2,2023-01-14T04:32:44.638Z,,,b,,,45,499.805,timeout,e.jpg,,,127706.3,127607.77,127107.972,127206.7,127124.707,127624.512,
canvas.Screen,10_15_3,2023-01-14T04:32:45.125Z,,,b,TRUE,b,45,567.588,response,e.jpg,b,keypress(f),128193.2,128192.1,127607.77,127706.4,127624.512,128107.684,
canvas.Screen,10_15_4,2023-01-14T04:32:45.622Z,,,b,,,45,499.937,timeout,e.jpg,,,128689.8,128591.116,128090.914,128194.7,128107.684,128607.621,
flow.Sequence,10_15,2023-01-14T04:32:45.622Z,,,b,,,45,2966.446,completion,e.jpg,,,128690.2,128591.116,125608.205,125707.4,125624.67,128607.621,
flow.Loop,10,2023-01-14T04:32:45.622Z,,,,,,,48510.282,completion,,,,128690.4,128591.116,80064.226,80163.5,80080.834,128607.621,
canvas.Screen,11_0_0,2023-01-14T04:32:46.121Z,,,d,,,315,500.175,timeout,eR.jpg,,,129189.7,129091.037,128591.116,128690.5,128607.621,129107.796,
canvas.Screen,11_0_1,2023-01-14T04:32:47.121Z,,,d,,,315,999.728,timeout,eR.jpg,,,130189.7,130091.073,129091.037,129189.9,129107.796,130107.524,
canvas.Screen,11_0_2,2023-01-14T04:32:47.621Z,,,d,,,315,500.057,timeout,eR.jpg,,,130689.6,130590.968,130091.073,130190,130107.524,130607.581,
canvas.Screen,11_0_3,2023-01-14T04:32:48.192Z,,,d,TRUE,d,315,652.119,response,eR.jpg,d,keypress(j),131260.1,131259.7,130590.968,130689.8,130607.581,131173.914,
canvas.Screen,11_0_4,2023-01-14T04:32:48.688Z,,,d,,,315,500.106,timeout,eR.jpg,,,131756.2,131657.514,131157.316,131265.4,131173.914,131674.02,
flow.Sequence,11_0,2023-01-14T04:32:48.688Z,,,d,,,315,3049.893,completion,eR.jpg,,,131756.4,131657.514,128591.116,128690.5,128607.621,131674.02,
canvas.Screen,11_1_0,2023-01-14T04:32:49.188Z,,,b,,,90,499.998,timeout,e.jpg,,,132256.1,132157.134,131657.514,131756.6,131674.02,132174.018,
canvas.Screen,11_1_1,2023-01-14T04:32:50.189Z,,,b,,,90,999.679,timeout,e.jpg,,,133256.8,133157.398,132157.134,132256.2,132174.018,133173.697,
canvas.Screen,11_1_2,2023-01-14T04:32:50.687Z,,,b,,,90,499.989,timeout,e.jpg,,,133755.6,133657.131,133157.398,133257.1,133173.697,133673.686,
canvas.Screen,11_1_3,2023-01-14T04:32:51.141Z,,,b,TRUE,b,90,534.514,response,e.jpg,b,keypress(f),134209.8,134208.2,133657.131,133755.8,133673.686,134123.507,
canvas.Screen,11_1_4,2023-01-14T04:32:51.637Z,,,b,,,90,499.951,timeout,e.jpg,,,134705.6,134607.035,134107.777,134211.8,134123.507,134623.458,
flow.Sequence,11_1,2023-01-14T04:32:51.637Z,,,b,,,90,2933.015,completion,e.jpg,,,134705.9,134607.035,131657.514,131756.5,131674.02,134623.458,
canvas.Screen,11_2_0,2023-01-14T04:32:52.137Z,,,b,,,225,499.996,timeout,e.jpg,,,135205.7,135107.015,134607.035,134706,134623.458,135123.454,
canvas.Screen,11_2_1,2023-01-14T04:32:53.137Z,,,b,,,225,999.987,timeout,e.jpg,,,136205.4,136106.775,135107.015,135205.9,135123.454,136123.441,
canvas.Screen,11_2_2,2023-01-14T04:32:53.637Z,,,b,,,225,499.883,timeout,e.jpg,,,136705.8,136606.611,136106.775,136205.6,136123.441,136623.324,
canvas.Screen,11_2_3,2023-01-14T04:32:54.242Z,,,b,TRUE,b,225,685.576,response,e.jpg,b,keypress(f),137310,137308.9,136606.611,136706.1,136623.324,137249.469,
canvas.Screen,11_2_4,2023-01-14T04:32:54.770Z,,,b,,,225,506.989,timeout,e.jpg,,,137838.6,137740.026,137210.985,137319.5,137249.469,137756.458,
flow.Sequence,11_2,2023-01-14T04:32:54.771Z,,,b,,,225,3116.568,completion,e.jpg,,,137838.9,137740.026,134607.035,134705.9,134623.458,137756.458,
canvas.Screen,11_3_0,2023-01-14T04:32:55.270Z,,,d,,,135,499.856,timeout,eR.jpg,,,138338.5,138239.875,137740.026,137839.1,137756.458,138256.314,
canvas.Screen,11_3_1,2023-01-14T04:32:56.270Z,,,d,,,135,999.895,timeout,eR.jpg,,,139338.4,139239.758,138239.875,138338.7,138256.314,139256.209,
canvas.Screen,11_3_2,2023-01-14T04:32:56.770Z,,,d,,,135,500.006,timeout,eR.jpg,,,139838.2,139739.685,139239.758,139338.6,139256.209,139756.215,
canvas.Screen,11_3_3,2023-01-14T04:32:57.321Z,,,d,TRUE,d,135,632.185,response,eR.jpg,d,keypress(j),140389.4,140388.4,139739.685,139838.4,139756.215,140306.042,
canvas.Screen,11_3_4,2023-01-14T04:32:57.820Z,,,d,,,135,500.009,timeout,eR.jpg,,,140888.2,140789.54,140290.307,140397,140306.042,140806.051,
flow.Sequence,11_3,2023-01-14T04:32:57.820Z,,,d,,,135,3033.082,completion,eR.jpg,,,140888.4,140789.54,137740.026,137839.1,137756.458,140806.051,
canvas.Screen,11_4_0,2023-01-14T04:32:58.320Z,,,b,,,45,499.834,timeout,e.jpg,,,141388.2,141289.593,140789.54,140888.6,140806.051,141305.885,
canvas.Screen,11_4_1,2023-01-14T04:32:59.319Z,,,b,,,45,999.893,timeout,e.jpg,,,142387.4,142289.215,141289.593,141388.4,141305.885,142305.778,
canvas.Screen,11_4_2,2023-01-14T04:32:59.821Z,,,b,,,45,500.069,timeout,e.jpg,,,142889.6,142789.286,142289.215,142387.4,142305.778,142805.847,
canvas.Screen,11_4_3,2023-01-14T04:33:00.186Z,,,b,TRUE,b,45,447.953,response,e.jpg,b,keypress(f),143254.3,143253.8,142789.286,142890,142805.847,143172.474,
canvas.Screen,11_4_4,2023-01-14T04:33:00.686Z,,,b,,,45,499.913,timeout,e.jpg,,,143754.4,143655.748,143141.565,143255.5,143172.474,143672.387,
flow.Sequence,11_4,2023-01-14T04:33:00.686Z,,,b,,,45,2849.697,completion,e.jpg,,,143754.7,143655.748,140789.54,140888.5,140806.051,143672.387,
canvas.Screen,11_5_0,2023-01-14T04:33:01.186Z,,,d,,,270,500.002,timeout,eR.jpg,,,144254.3,144155.71,143655.748,143754.9,143672.387,144172.389,
canvas.Screen,11_5_1,2023-01-14T04:33:02.186Z,,,d,,,270,999.688,timeout,eR.jpg,,,145254.6,145155.968,144155.71,144254.6,144172.389,145172.077,
canvas.Screen,11_5_2,2023-01-14T04:33:02.686Z,,,d,,,270,499.899,timeout,eR.jpg,,,145754.2,145655.684,145155.968,145254.6,145172.077,145671.976,
canvas.Screen,11_5_3,2023-01-14T04:33:03.240Z,,,d,TRUE,d,270,635.224,response,eR.jpg,d,keypress(j),146308.2,146307.2,145655.684,145754.3,145671.976,146221.893,
canvas.Screen,11_5_4,2023-01-14T04:33:03.736Z,,,d,,,270,500.066,timeout,eR.jpg,,,146804.2,146705.567,146205.372,146311,146221.893,146721.959,
flow.Sequence,11_5,2023-01-14T04:33:03.736Z,,,d,,,270,3033.18,completion,eR.jpg,,,146804.4,146705.567,143655.748,143754.8,143672.387,146721.959,
canvas.Screen,11_6_0,2023-01-14T04:33:04.236Z,,,b,,,0,499.922,timeout,e.jpg,,,147304.7,147205.494,146705.567,146804.7,146721.959,147221.881,
canvas.Screen,11_6_1,2023-01-14T04:33:05.235Z,,,b,,,0,999.776,timeout,e.jpg,,,148303.5,148205.358,147205.494,147305.1,147221.881,148221.657,
canvas.Screen,11_6_2,2023-01-14T04:33:05.736Z,,,b,,,0,500.022,timeout,e.jpg,,,148804.1,148705.116,148205.358,148303.6,148221.657,148721.679,
canvas.Screen,11_6_3,2023-01-14T04:33:06.239Z,,,b,TRUE,b,0,584.621,response,e.jpg,b,keypress(f),149307.1,149306.3,148705.116,148804.4,148721.679,149221.474,
canvas.Screen,11_6_4,2023-01-14T04:33:06.735Z,,,b,,,0,500.104,timeout,e.jpg,,,149803.7,149704.982,149205.527,149312.6,149221.474,149721.578,
flow.Sequence,11_6,2023-01-14T04:33:06.736Z,,,b,,,0,2983.023,completion,e.jpg,,,149804,149704.982,146705.567,146804.7,146721.959,149721.578,
canvas.Screen,11_7_0,2023-01-14T04:33:07.236Z,,,d,,,180,499.927,timeout,eR.jpg,,,150304.1,150204.903,149704.982,149804.2,149721.578,150221.505,
canvas.Screen,11_7_1,2023-01-14T04:33:08.235Z,,,d,,,180,999.944,timeout,eR.jpg,,,151303.3,151204.82,150204.903,150304.4,150221.505,151221.449,
canvas.Screen,11_7_2,2023-01-14T04:33:08.735Z,,,d,,,180,499.879,timeout,eR.jpg,,,151803.4,151704.762,151204.82,151303.5,151221.449,151721.328,
canvas.Screen,11_7_3,2023-01-14T04:33:09.385Z,,,d,TRUE,d,180,730.972,response,eR.jpg,d,keypress(j),152453.4,152452.3,151704.762,151803.6,151721.328,152371.225,
canvas.Screen,11_7_4,2023-01-14T04:33:09.885Z,,,d,,,180,499.89,timeout,eR.jpg,,,152953.3,152854.596,152347.903,152460.4,152371.225,152871.115,
flow.Sequence,11_7,2023-01-14T04:33:09.885Z,,,d,,,180,3133.018,completion,eR.jpg,,,152953.6,152854.596,149704.982,149804.1,149721.578,152871.115,
canvas.Screen,11_8_0,2023-01-14T04:33:10.385Z,,,b,,,315,500.015,timeout,e.jpg,,,153453.3,153354.593,152854.596,152953.7,152871.115,153371.13,
canvas.Screen,11_8_1,2023-01-14T04:33:11.385Z,,,b,,,315,999.882,timeout,e.jpg,,,154453,154354.513,153354.593,153453.5,153371.13,154371.012,
canvas.Screen,11_8_2,2023-01-14T04:33:11.885Z,,,b,,,315,499.796,timeout,e.jpg,,,154953,154854.494,154354.513,154453.1,154371.012,154870.808,
canvas.Screen,11_8_3,2023-01-14T04:33:12.281Z,,,b,TRUE,b,315,478.092,response,e.jpg,b,keypress(f),155349.8,155348.9,154854.494,154953.2,154870.808,155287.425,
canvas.Screen,11_8_4,2023-01-14T04:33:12.801Z,,,b,,,315,500.004,timeout,e.jpg,,,155869.7,155770.899,155270.973,155351.3,155287.425,155787.429,
flow.Sequence,11_8,2023-01-14T04:33:12.802Z,,,b,,,315,2899.784,completion,e.jpg,,,155870.2,155770.899,152854.596,152953.7,152871.115,155787.429,
canvas.Screen,11_9_0,2023-01-14T04:33:13.301Z,,,b,,,270,499.839,timeout,e.jpg,,,156369.3,156270.836,155770.899,155870.3,155787.429,156287.268,
canvas.Screen,11_9_1,2023-01-14T04:33:14.301Z,,,b,,,270,999.964,timeout,e.jpg,,,157369.4,157270.771,156270.836,156369.5,156287.268,157287.232,
canvas.Screen,11_9_2,2023-01-14T04:33:14.801Z,,,b,,,270,499.769,timeout,e.jpg,,,157869.4,157770.653,157270.771,157369.5,157287.232,157787.001,
canvas.Screen,11_9_3,2023-01-14T04:33:15.199Z,,,b,TRUE,b,270,478.799,response,e.jpg,b,keypress(f),158267.2,158265.8,157770.653,157869.5,157787.001,158186.964,
canvas.Screen,11_9_4,2023-01-14T04:33:15.701Z,,,b,,,270,500.035,timeout,e.jpg,,,158769,158670.574,158170.477,158277.7,158186.964,158686.999,
flow.Sequence,11_9,2023-01-14T04:33:15.701Z,,,b,,,270,2883.145,completion,e.jpg,,,158769.3,158670.574,155770.899,155870.3,155787.429,158686.999,
canvas.Screen,11_10_0,2023-01-14T04:33:16.201Z,,,b,,,180,499.889,timeout,e.jpg,,,159269.2,159170.482,158670.574,158769.6,158686.999,159186.888,
canvas.Screen,11_10_1,2023-01-14T04:33:17.202Z,,,b,,,180,1000.009,timeout,e.jpg,,,160269.9,160170.166,159170.482,159269.3,159186.888,160186.897,
canvas.Screen,11_10_2,2023-01-14T04:33:17.700Z,,,b,,,180,499.895,timeout,e.jpg,,,160768.8,160670.251,160170.166,160270.2,160186.897,160686.792,
canvas.Screen,11_10_3,2023-01-14T04:33:18.315Z,,,b,TRUE,b,180,695.408,response,e.jpg,b,keypress(f),161383.4,161382.2,160670.251,160768.9,160686.792,161303.369,
canvas.Screen,11_10_4,2023-01-14T04:33:18.817Z,,,b,,,180,500.125,timeout,e.jpg,,,161885.5,161786.774,161287.679,161392.6,161303.369,161803.494,
flow.Sequence,11_10,2023-01-14T04:33:18.817Z,,,b,,,180,3099.775,completion,e.jpg,,,161885.8,161786.774,158670.574,158769.5,158686.999,161803.494,
canvas.Screen,11_11_0,2023-01-14T04:33:19.317Z,,,b,,,135,499.666,timeout,e.jpg,,,162385.4,162286.711,161786.774,161886,161803.494,162303.16,
canvas.Screen,11_11_1,2023-01-14T04:33:20.317Z,,,b,,,135,1000.065,timeout,e.jpg,,,163385,163286.402,162286.711,162385.6,162303.16,163303.225,
canvas.Screen,11_11_2,2023-01-14T04:33:20.817Z,,,b,,,135,499.686,timeout,e.jpg,,,163885.1,163786.474,163286.402,163385.1,163303.225,163802.911,
canvas.Screen,11_11_3,2023-01-14T04:33:21.330Z,,,b,TRUE,b,135,594.189,response,e.jpg,b,keypress(f),164398.1,164397.1,163786.474,163885.3,163802.911,164324.443,
canvas.Screen,11_11_4,2023-01-14T04:33:21.833Z,,,b,,,135,495.199,timeout,e.jpg,,,164901.7,164803.023,164289.838,164399.4,164324.443,164819.642,
flow.Sequence,11_11,2023-01-14T04:33:21.834Z,,,b,,,135,2999.529,completion,e.jpg,,,164902,164803.023,161786.774,161886,161803.494,164819.642,
canvas.Screen,11_12_0,2023-01-14T04:33:22.333Z,,,d,,,90,499.695,timeout,eR.jpg,,,165401.5,165302.987,164803.023,164902.2,164819.642,165319.337,
canvas.Screen,11_12_1,2023-01-14T04:33:23.333Z,,,d,,,90,1000.164,timeout,eR.jpg,,,166401.4,166302.824,165302.987,165401.7,165319.337,166319.501,
canvas.Screen,11_12_2,2023-01-14T04:33:23.833Z,,,d,,,90,499.838,timeout,eR.jpg,,,166901.2,166802.753,166302.824,166401.5,166319.501,166819.339,
canvas.Screen,11_12_3,2023-01-14T04:33:24.315Z,,,d,TRUE,d,90,563.261,response,eR.jpg,d,keypress(j),167383.7,167382.6,166802.753,166901.5,166819.339,167302.547,
canvas.Screen,11_12_4,2023-01-14T04:33:24.816Z,,,d,,,90,500.008,timeout,eR.jpg,,,167884.6,167785.871,167286.641,167392.7,167302.547,167802.555,
flow.Sequence,11_12,2023-01-14T04:33:24.817Z,,,d,,,90,2966.229,completion,eR.jpg,,,167884.9,167785.871,164803.023,164902.1,164819.642,167802.555,
canvas.Screen,11_13_0,2023-01-14T04:33:25.316Z,,,d,,,225,499.956,timeout,eR.jpg,,,168384.5,168285.823,167785.871,167885,167802.555,168302.511,
canvas.Screen,11_13_1,2023-01-14T04:33:26.316Z,,,d,,,225,999.66,timeout,eR.jpg,,,169384.5,169285.982,168285.823,168384.7,168302.511,169302.171,
canvas.Screen,11_13_2,2023-01-14T04:33:26.817Z,,,d,,,225,499.902,timeout,eR.jpg,,,169885.2,169785.584,169285.982,169384.7,169302.171,169802.073,
canvas.Screen,11_13_3,2023-01-14T04:33:27.385Z,,,d,TRUE,d,225,650.427,response,eR.jpg,d,keypress(j),170453.2,170452.5,169785.584,169885.4,169802.073,170368.909,
canvas.Screen,11_13_4,2023-01-14T04:33:27.883Z,,,d,,,225,500.178,timeout,eR.jpg,,,170950.9,170852.235,170356.242,170454.1,170368.909,170869.087,
flow.Sequence,11_13,2023-01-14T04:33:27.883Z,,,d,,,225,3049.68,completion,eR.jpg,,,170951.3,170852.235,167785.871,167885,167802.555,170869.087,
canvas.Screen,11_14_0,2023-01-14T04:33:28.382Z,,,d,,,45,499.721,timeout,eR.jpg,,,171450.7,171352.176,170852.235,170951.4,170869.087,171368.808,
canvas.Screen,11_14_1,2023-01-14T04:33:29.382Z,,,d,,,45,999.702,timeout,eR.jpg,,,172450.6,172352.007,171352.176,171450.9,171368.808,172368.51,
canvas.Screen,11_14_2,2023-01-14T04:33:29.882Z,,,d,,,45,500.014,timeout,eR.jpg,,,172950.3,172851.884,172352.007,172450.8,172368.51,172868.524,
canvas.Screen,11_14_3,2023-01-14T04:33:30.390Z,,,d,TRUE,d,45,589.476,response,eR.jpg,d,keypress(j),173458.3,173458,172851.884,172950.4,172868.524,173368.454,
canvas.Screen,11_14_4,2023-01-14T04:33:30.884Z,,,d,,,45,499.808,timeout,eR.jpg,,,173951.9,173851.71,173352.18,173463.9,173368.454,173868.262,
flow.Sequence,11_14,2023-01-14T04:33:30.884Z,,,d,,,45,2982.623,completion,eR.jpg,,,173952.1,173851.71,170852.235,170951.3,170869.087,173868.262,
canvas.Screen,11_15_0,2023-01-14T04:33:31.382Z,,,d,,,0,500.227,timeout,eR.jpg,,,174450.3,174351.714,173851.71,173952.3,173868.262,174368.489,
canvas.Screen,11_15_1,2023-01-14T04:33:32.382Z,,,d,,,0,999.61,timeout,eR.jpg,,,175450.2,175351.698,174351.714,174450.5,174368.489,175368.099,
canvas.Screen,11_15_2,2023-01-14T04:33:32.882Z,,,d,,,0,499.861,timeout,eR.jpg,,,175950.2,175851.613,175351.698,175450.4,175368.099,175867.96,
canvas.Screen,11_15_3,2023-01-14T04:33:33.326Z,,,d,TRUE,d,0,525.14,response,eR.jpg,d,keypress(j),176394,176393.1,175851.613,175950.4,175867.96,176301.274,
canvas.Screen,11_15_4,2023-01-14T04:33:33.815Z,,,d,,,0,500.047,timeout,eR.jpg,,,176883,176784.732,176284.88,176395.7,176301.274,176801.321,
flow.Sequence,11_15,2023-01-14T04:33:33.815Z,,,d,,,0,2916.47,completion,eR.jpg,,,176883.3,176784.732,173851.71,173952.3,173868.262,176801.321,
flow.Loop,11,2023-01-14T04:33:33.815Z,,,,,,,48177.111,completion,,,,176883.3,176784.732,128591.116,128690.5,128607.621,176801.321,
canvas.Screen,12_0_0,2023-01-14T04:33:34.315Z,,,d,,,45,499.844,timeout,eR.jpg,,,177383.4,177284.727,176784.732,176883.6,176801.321,177301.165,
canvas.Screen,12_0_1,2023-01-14T04:33:35.315Z,,,d,,,45,1000.043,timeout,eR.jpg,,,178383.1,178284.523,177284.727,177383.7,177301.165,178301.208,
canvas.Screen,12_0_2,2023-01-14T04:33:35.815Z,,,d,,,45,499.871,timeout,eR.jpg,,,178883.1,178784.514,178284.523,178383.2,178301.208,178801.079,
canvas.Screen,12_0_3,2023-01-14T04:33:36.184Z,,,d,TRUE,d,45,449.821,response,eR.jpg,d,keypress(j),179251.5,179250.9,178784.514,178883.4,178801.079,179167.572,
canvas.Screen,12_0_4,2023-01-14T04:33:36.682Z,,,d,,,45,500.072,timeout,eR.jpg,,,179749.9,179651.168,179152.414,179258.5,179167.572,179667.644,
flow.Sequence,12_0,2023-01-14T04:33:36.682Z,,,d,,,45,2849.847,completion,eR.jpg,,,179750.3,179651.168,176784.732,176883.5,176801.321,179667.644,
canvas.Screen,12_1_0,2023-01-14T04:33:37.182Z,,,d,,,180,499.853,timeout,eR.jpg,,,180249.6,180150.984,179651.168,179750.4,179667.644,180167.497,
canvas.Screen,12_1_1,2023-01-14T04:33:38.182Z,,,d,,,180,999.839,timeout,eR.jpg,,,181249.5,181150.851,180150.984,180249.8,180167.497,181167.336,
canvas.Screen,12_1_2,2023-01-14T04:33:38.682Z,,,d,,,180,500.113,timeout,eR.jpg,,,181749.3,181650.779,181150.851,181249.7,181167.336,181667.449,
canvas.Screen,12_1_3,2023-01-14T04:33:39.437Z,,,d,TRUE,d,180,835.851,response,eR.jpg,d,keypress(j),182504.9,182503.3,181650.779,181749.6,181667.449,182433.828,
canvas.Screen,12_1_4,2023-01-14T04:33:39.948Z,,,d,,,180,499.941,timeout,eR.jpg,,,183015.9,182917.289,182417.286,182514.5,182433.828,182933.769,
flow.Sequence,12_1,2023-01-14T04:33:39.948Z,,,d,,,180,3249.645,completion,eR.jpg,,,183016.2,182917.289,179651.168,179750.4,179667.644,182933.769,
canvas.Screen,12_2_0,2023-01-14T04:33:40.448Z,,,b,,,270,500.192,timeout,e.jpg,,,183516.1,183417.321,182917.289,183016.4,182933.769,183433.961,
canvas.Screen,12_2_1,2023-01-14T04:33:41.448Z,,,b,,,270,999.899,timeout,e.jpg,,,184515.7,184417.04,183417.321,183516.3,183433.961,184433.86,
canvas.Screen,12_2_2,2023-01-14T04:33:41.948Z,,,b,,,270,499.622,timeout,e.jpg,,,185015.7,184916.979,184417.04,184515.9,184433.86,184933.482,
canvas.Screen,12_2_3,2023-01-14T04:33:42.486Z,,,b,TRUE,b,270,619.518,response,e.jpg,b,keypress(f),185554.2,185553,184916.979,185015.9,184933.482,185466.788,
canvas.Screen,12_2_4,2023-01-14T04:33:42.981Z,,,b,,,270,500.147,timeout,e.jpg,,,186048.9,185950.205,185451.147,185557,185466.788,185966.935,
flow.Sequence,12_2,2023-01-14T04:33:42.981Z,,,b,,,270,3016.436,completion,e.jpg,,,186049.2,185950.205,182917.289,183016.3,182933.769,185966.935,
canvas.Screen,12_3_0,2023-01-14T04:33:43.481Z,,,b,,,315,499.887,timeout,e.jpg,,,186548.6,186450.128,185950.205,186049.3,185966.935,186466.822,
canvas.Screen,12_3_1,2023-01-14T04:33:44.481Z,,,b,,,315,999.67,timeout,e.jpg,,,187548.5,187449.924,186450.128,186548.8,186466.822,187466.492,
canvas.Screen,12_3_2,2023-01-14T04:33:44.981Z,,,b,,,315,499.96,timeout,e.jpg,,,188048.5,187949.956,187449.924,187548.6,187466.492,187966.452,
canvas.Screen,12_3_3,2023-01-14T04:33:45.416Z,,,b,TRUE,b,315,515.848,response,e.jpg,b,keypress(f),188483.6,188482.3,187949.956,188048.6,187966.452,188399.686,
canvas.Screen,12_3_4,2023-01-14T04:33:45.915Z,,,b,,,315,500.1,timeout,e.jpg,,,188982.7,188883.338,188383.908,188485.4,188399.686,188899.786,
flow.Sequence,12_3,2023-01-14T04:33:45.915Z,,,b,,,315,2916.403,completion,e.jpg,,,188983,188883.338,185950.205,186049.3,185966.935,188899.786,
canvas.Screen,12_4_0,2023-01-14T04:33:46.414Z,,,b,,,0,499.938,timeout,e.jpg,,,189481.7,189383.095,188883.338,188983.2,188899.786,189399.724,
canvas.Screen,12_4_1,2023-01-14T04:33:47.414Z,,,b,,,0,999.719,timeout,e.jpg,,,190481.6,190383.029,189383.095,189481.8,189399.724,190399.443,
canvas.Screen,12_4_2,2023-01-14T04:33:47.914Z,,,b,,,0,499.926,timeout,e.jpg,,,190981.5,190882.894,190383.029,190481.7,190399.443,190899.369,
canvas.Screen,12_4_3,2023-01-14T04:33:48.306Z,,,b,TRUE,b,0,473.731,response,e.jpg,b,keypress(f),191374.1,191373.1,190882.894,190981.7,190899.369,191299.35,
canvas.Screen,12_4_4,2023-01-14T04:33:48.814Z,,,b,,,0,500.042,timeout,e.jpg,,,191881.3,191782.768,191283.035,191382.4,191299.35,191799.392,
flow.Sequence,12_4,2023-01-14T04:33:48.814Z,,,b,,,0,2882.982,completion,e.jpg,,,191881.7,191782.768,188883.338,188983.1,188899.786,191799.392,
canvas.Screen,12_5_0,2023-01-14T04:33:49.314Z,,,d,,,270,500.006,timeout,eR.jpg,,,192381.3,192282.663,191782.768,191881.8,191799.392,192299.398,
canvas.Screen,12_5_1,2023-01-14T04:33:50.313Z,,,d,,,270,999.693,timeout,eR.jpg,,,193381.3,193282.686,192282.663,192381.5,192299.398,193299.091,
canvas.Screen,12_5_2,2023-01-14T04:33:50.813Z,,,d,,,270,500.114,timeout,eR.jpg,,,193881,193782.467,193282.686,193381.5,193299.091,193799.205,
canvas.Screen,12_5_3,2023-01-14T04:33:51.301Z,,,d,TRUE,d,270,568.595,response,eR.jpg,d,keypress(j),194368.8,194367.8,193782.467,193881.3,193799.205,194282.189,
canvas.Screen,12_5_4,2023-01-14T04:33:51.796Z,,,d,,,270,500.056,timeout,eR.jpg,,,194864.3,194765.647,194265.669,194371.6,194282.189,194782.245,
flow.Sequence,12_5,2023-01-14T04:33:51.797Z,,,d,,,270,2966.255,completion,eR.jpg,,,194864.5,194765.647,191782.768,191881.8,191799.392,194782.245,
canvas.Screen,12_6_0,2023-01-14T04:33:52.297Z,,,d,,,315,499.965,timeout,eR.jpg,,,195364.4,195265.786,194765.647,194864.7,194782.245,195282.21,
canvas.Screen,12_6_1,2023-01-14T04:33:53.297Z,,,d,,,315,999.852,timeout,eR.jpg,,,196364.4,196265.74,195265.786,195364.6,195282.21,196282.062,
canvas.Screen,12_6_2,2023-01-14T04:33:53.796Z,,,d,,,315,499.913,timeout,eR.jpg,,,196864,196765.56,196265.74,196364.5,196282.062,196781.975,
canvas.Screen,12_6_3,2023-01-14T04:33:54.214Z,,,d,TRUE,d,315,499.325,response,eR.jpg,d,keypress(j),197282.2,197281.3,196765.56,196864.1,196781.975,197198.608,
canvas.Screen,12_6_4,2023-01-14T04:33:54.713Z,,,d,,,315,500.04,timeout,eR.jpg,,,197780.5,197682.027,197182.067,197287.7,197198.608,197698.648,
flow.Sequence,12_6,2023-01-14T04:33:54.713Z,,,d,,,315,2899.782,completion,eR.jpg,,,197780.8,197682.027,194765.647,194864.6,194782.245,197698.648,
canvas.Screen,12_7_0,2023-01-14T04:33:55.214Z,,,d,,,0,499.858,timeout,eR.jpg,,,198281.6,198181.882,197682.027,197781,197698.648,198198.506,
canvas.Screen,12_7_1,2023-01-14T04:33:56.213Z,,,d,,,0,999.795,timeout,eR.jpg,,,199281.1,199181.743,198181.882,198281.8,198198.506,199198.301,
canvas.Screen,12_7_2,2023-01-14T04:33:56.713Z,,,d,,,0,500.102,timeout,eR.jpg,,,199780.3,199681.734,199181.743,199281.2,199198.301,199698.403,
canvas.Screen,12_7_3,2023-01-14T04:33:57.252Z,,,d,TRUE,d,0,620.797,response,eR.jpg,d,keypress(j),200319.6,200319.2,199681.734,199780.6,199698.403,200231.439,
canvas.Screen,12_7_4,2023-01-14T04:33:57.746Z,,,d,,,0,500.071,timeout,eR.jpg,,,200813.5,200714.881,200206.168,200320.5,200231.439,200731.51,
flow.Sequence,12_7,2023-01-14T04:33:57.746Z,,,d,,,0,3016.233,completion,eR.jpg,,,200813.8,200714.881,197682.027,197781,197698.648,200731.51,
canvas.Screen,12_8_0,2023-01-14T04:33:58.246Z,,,b,,,90,499.885,timeout,e.jpg,,,201313.8,201215.24,200714.881,200814,200731.51,201231.395,
canvas.Screen,12_8_1,2023-01-14T04:33:59.245Z,,,b,,,90,999.985,timeout,e.jpg,,,202313.3,202214.678,201215.24,201314,201231.395,202231.38,
canvas.Screen,12_8_2,2023-01-14T04:33:59.745Z,,,b,,,90,499.879,timeout,e.jpg,,,202813.3,202714.674,202214.678,202313.4,202231.38,202731.259,
canvas.Screen,12_8_3,2023-01-14T04:34:00.106Z,,,b,TRUE,b,90,441.741,response,e.jpg,b,keypress(f),203174.2,203173,202714.674,202813.5,202731.259,203097.756,
canvas.Screen,12_8_4,2023-01-14T04:34:00.612Z,,,b,,,90,500.103,timeout,e.jpg,,,203679.9,203581.254,203081.102,203181.7,203097.756,203597.859,
flow.Sequence,12_8,2023-01-14T04:34:00.612Z,,,b,,,90,2849.744,completion,e.jpg,,,203680.2,203581.254,200714.881,200814,200731.51,203597.859,
canvas.Screen,12_9_0,2023-01-14T04:34:01.112Z,,,b,,,225,499.86,timeout,e.jpg,,,204179.8,204081.137,203581.254,203680.3,203597.859,204097.719,
canvas.Screen,12_9_1,2023-01-14T04:34:02.112Z,,,b,,,225,999.855,timeout,e.jpg,,,205179.6,205080.972,204081.137,204180,204097.719,205097.574,
canvas.Screen,12_9_2,2023-01-14T04:34:02.612Z,,,b,,,225,499.873,timeout,e.jpg,,,205679.7,205580.917,205080.972,205179.8,205097.574,205597.447,
canvas.Screen,12_9_3,2023-01-14T04:34:03.146Z,,,b,TRUE,b,225,614.753,response,e.jpg,b,keypress(f),206213.7,206212.2,205580.917,205679.9,205597.447,206130.785,
canvas.Screen,12_9_4,2023-01-14T04:34:03.645Z,,,b,,,225,499.973,timeout,e.jpg,,,206712.8,206614.2,206107.597,206215.7,206130.785,206630.758,
flow.Sequence,12_9,2023-01-14T04:34:03.645Z,,,b,,,225,3016.341,completion,e.jpg,,,206713.1,206614.2,203581.254,203680.3,203597.859,206630.758,
canvas.Screen,12_10_0,2023-01-14T04:34:04.145Z,,,d,,,135,499.713,timeout,eR.jpg,,,207212.8,207114.212,206614.2,206713.3,206630.758,207130.471,
canvas.Screen,12_10_1,2023-01-14T04:34:05.145Z,,,d,,,135,1000.108,timeout,eR.jpg,,,208213,208114.004,207114.212,207213,207130.471,208130.579,
canvas.Screen,12_10_2,2023-01-14T04:34:05.645Z,,,d,,,135,499.958,timeout,eR.jpg,,,208712.5,208613.924,208114.004,208213.2,208130.579,208630.537,
canvas.Screen,12_10_3,2023-01-14T04:34:06.187Z,,,d,TRUE,d,135,623.163,response,eR.jpg,d,keypress(j),209254.5,209253.7,208613.924,208712.8,208630.537,209180.406,
canvas.Screen,12_10_4,2023-01-14T04:34:06.695Z,,,d,,,135,499.863,timeout,eR.jpg,,,209762.5,209663.859,209147.103,209260.9,209180.406,209680.269,
flow.Sequence,12_10,2023-01-14T04:34:06.695Z,,,d,,,135,3033.101,completion,eR.jpg,,,209762.8,209663.859,206614.2,206713.3,206630.758,209680.269,
canvas.Screen,12_11_0,2023-01-14T04:34:07.194Z,,,d,,,225,499.984,timeout,eR.jpg,,,210262.3,210163.696,209663.859,209762.9,209680.269,210180.253,
canvas.Screen,12_11_1,2023-01-14T04:34:08.194Z,,,d,,,225,999.834,timeout,eR.jpg,,,211262.1,211163.552,210163.696,210262.4,210180.253,211180.087,
canvas.Screen,12_11_2,2023-01-14T04:34:08.694Z,,,d,,,225,499.949,timeout,eR.jpg,,,211762.1,211663.377,211163.552,211262.4,211180.087,211680.036,
canvas.Screen,12_11_3,2023-01-14T04:34:09.350Z,,,d,TRUE,d,225,736.664,response,eR.jpg,d,keypress(j),212417.9,212416.7,211663.377,211762.3,211680.036,212329.928,
canvas.Screen,12_11_4,2023-01-14T04:34:09.844Z,,,d,,,225,500.209,timeout,eR.jpg,,,212911.9,212813.225,212313.099,212419.5,212329.928,212830.137,
flow.Sequence,12_11,2023-01-14T04:34:09.844Z,,,d,,,225,3132.956,completion,eR.jpg,,,212912.2,212813.225,209663.859,209762.9,209680.269,212830.137,
canvas.Screen,12_12_0,2023-01-14T04:34:10.344Z,,,d,,,90,499.749,timeout,eR.jpg,,,213412,213313.326,212813.225,212912.4,212830.137,213329.886,
canvas.Screen,12_12_1,2023-01-14T04:34:11.345Z,,,d,,,90,1000.045,timeout,eR.jpg,,,214412.5,214313.158,213313.326,213412.3,213329.886,214329.931,
canvas.Screen,12_12_2,2023-01-14T04:34:11.844Z,,,d,,,90,499.693,timeout,eR.jpg,,,214911.7,214813.115,214313.158,214412.7,214329.931,214829.624,
canvas.Screen,12_12_3,2023-01-14T04:34:12.417Z,,,d,TRUE,d,90,653.776,response,eR.jpg,d,keypress(j),215484.3,215483.4,214813.115,214912,214829.624,215413.039,
canvas.Screen,12_12_4,2023-01-14T04:34:12.929Z,,,d,,,90,499.67,timeout,eR.jpg,,,215996.4,215896.23,215380.447,215493.4,215413.039,215912.709,
flow.Sequence,12_12,2023-01-14T04:34:12.929Z,,,d,,,90,3066.093,completion,eR.jpg,,,215996.7,215896.23,212813.225,212912.3,212830.137,215912.709,
canvas.Screen,12_13_0,2023-01-14T04:34:13.427Z,,,b,,,180,500.074,timeout,e.jpg,,,216494.8,216396.128,215896.23,215996.7,215912.709,216412.783,
canvas.Screen,12_13_1,2023-01-14T04:34:14.427Z,,,b,,,180,999.787,timeout,e.jpg,,,217494.6,217395.979,216396.128,216494.9,216412.783,217412.57,
canvas.Screen,12_13_2,2023-01-14T04:34:14.927Z,,,b,,,180,499.846,timeout,e.jpg,,,217994.7,217895.972,217395.979,217494.7,217412.57,217912.416,
canvas.Screen,12_13_3,2023-01-14T04:34:15.456Z,,,b,TRUE,b,180,609.984,response,e.jpg,b,keypress(f),218523.5,218522.4,217895.972,217995,217912.416,218449.549,
canvas.Screen,12_13_4,2023-01-14T04:34:15.960Z,,,b,,,180,496.149,timeout,e.jpg,,,219027.8,218929.188,218416.246,218525.2,218449.549,218945.698,
flow.Sequence,12_13,2023-01-14T04:34:15.960Z,,,b,,,180,3016.479,completion,e.jpg,,,219028.2,218929.188,215896.23,215996.7,215912.709,218945.698,
canvas.Screen,12_14_0,2023-01-14T04:34:16.460Z,,,b,,,45,499.811,timeout,e.jpg,,,219527.8,219429.168,218929.188,219028.3,218945.698,219445.509,
canvas.Screen,12_14_1,2023-01-14T04:34:17.460Z,,,b,,,45,1000.038,timeout,e.jpg,,,220527.6,220429.037,219429.168,219527.9,219445.509,220445.547,
canvas.Screen,12_14_2,2023-01-14T04:34:17.960Z,,,b,,,45,499.816,timeout,e.jpg,,,221027.5,220928.88,220429.037,220527.8,220445.547,220945.363,
canvas.Screen,12_14_3,2023-01-14T04:34:18.359Z,,,b,TRUE,b,45,481.137,response,e.jpg,b,keypress(f),221427,221426.5,220928.88,221027.7,220945.363,221345.278,
canvas.Screen,12_14_4,2023-01-14T04:34:18.860Z,,,b,,,45,499.975,timeout,e.jpg,,,221927.4,221828.76,221329.296,221434,221345.278,221845.253,
flow.Sequence,12_14,2023-01-14T04:34:18.860Z,,,b,,,45,2883.062,completion,e.jpg,,,221927.9,221828.76,218929.188,219028.3,218945.698,221845.253,
canvas.Screen,12_15_0,2023-01-14T04:34:19.360Z,,,b,,,135,499.885,timeout,e.jpg,,,222427.4,222328.809,221828.76,221928.2,221845.253,222345.138,
canvas.Screen,12_15_1,2023-01-14T04:34:20.359Z,,,b,,,135,1000.491,timeout,e.jpg,,,223427.2,223328.634,222328.809,222427.7,222345.138,223345.629,
canvas.Screen,12_15_2,2023-01-14T04:34:20.861Z,,,b,,,135,499.684,timeout,e.jpg,,,223928.9,223828.622,223328.634,223427.5,223345.629,223845.313,
canvas.Screen,12_15_3,2023-01-14T04:34:21.373Z,,,b,TRUE,b,135,594.987,response,e.jpg,b,keypress(f),224440.7,224440.3,223828.622,223929,223845.313,224345.111,
canvas.Screen,12_15_4,2023-01-14T04:34:21.859Z,,,b,,,135,500.088,timeout,e.jpg,,,224927.1,224828.368,224331.918,224441.5,224345.111,224845.199,
flow.Sequence,12_15,2023-01-14T04:34:21.860Z,,,b,,,135,2983.115,completion,e.jpg,,,224927.4,224828.368,221828.76,221928,221845.253,224845.199,
flow.Loop,12,2023-01-14T04:34:21.860Z,,,,,,,48027.047,completion,,,,224927.6,224828.368,176784.732,176883.4,176801.321,224845.199,
canvas.Screen,13_0_0,2023-01-14T04:34:22.359Z,,,b,,,45,499.921,timeout,e.jpg,,,225426.9,225328.407,224828.368,224927.8,224845.199,225345.12,
canvas.Screen,13_0_1,2023-01-14T04:34:23.359Z,,,b,,,45,1000.051,timeout,e.jpg,,,226426.7,226328.146,225328.407,225427.1,225345.12,226345.171,
canvas.Screen,13_0_2,2023-01-14T04:34:23.859Z,,,b,,,45,499.384,timeout,e.jpg,,,226927.2,226828.077,226328.146,226426.9,226345.171,226844.555,
canvas.Screen,13_0_3,2023-01-14T04:34:24.315Z,,,b,TRUE,b,45,537.845,response,e.jpg,b,keypress(f),227382.9,227382.4,226828.077,226938.3,226844.555,227294.493,
canvas.Screen,13_0_4,2023-01-14T04:34:24.809Z,,,b,,,45,500.521,timeout,e.jpg,,,227876.7,227777.991,227278.19,227388.3,227294.493,227795.014,
flow.Sequence,13_0,2023-01-14T04:34:24.809Z,,,b,,,45,2932.792,completion,e.jpg,,,227877,227777.991,224828.368,224927.8,224845.199,227795.014,
canvas.Screen,13_1_0,2023-01-14T04:34:25.309Z,,,b,,,90,499.497,timeout,e.jpg,,,228376.6,228277.989,227777.991,227877.2,227795.014,228294.511,
canvas.Screen,13_1_1,2023-01-14T04:34:26.309Z,,,b,,,90,999.817,timeout,e.jpg,,,229376.4,229277.773,228277.989,228376.7,228294.511,229294.328,
canvas.Screen,13_1_2,2023-01-14T04:34:26.808Z,,,b,,,90,500.057,timeout,e.jpg,,,229876.2,229777.687,229277.773,229376.7,229294.328,229794.385,
canvas.Screen,13_1_3,2023-01-14T04:34:27.175Z,,,b,TRUE,b,90,448.115,response,e.jpg,b,keypress(f),230242.9,230242.5,229777.687,229876.4,229794.385,230161.036,
canvas.Screen,13_1_4,2023-01-14T04:34:27.675Z,,,b,,,90,499.955,timeout,e.jpg,,,230743,230644.331,230144.315,230243.8,230161.036,230660.991,
flow.Sequence,13_1,2023-01-14T04:34:27.676Z,,,b,,,90,2849.317,completion,e.jpg,,,230743.3,230644.331,227777.991,227877.1,227795.014,230660.991,
canvas.Screen,13_2_0,2023-01-14T04:34:28.175Z,,,d,,,90,499.759,timeout,eR.jpg,,,231242.9,231144.188,230644.331,230743.5,230660.991,231160.75,
canvas.Screen,13_2_1,2023-01-14T04:34:29.175Z,,,d,,,90,1000.013,timeout,eR.jpg,,,232242.7,232144.156,231144.188,231243.1,231160.75,232160.763,
canvas.Screen,13_2_2,2023-01-14T04:34:29.675Z,,,d,,,90,499.882,timeout,eR.jpg,,,232742.7,232644.198,232144.156,232242.8,232160.763,232660.645,
canvas.Screen,13_2_3,2023-01-14T04:34:30.170Z,,,d,TRUE,d,90,575.955,response,eR.jpg,d,keypress(j),233237.5,233236.6,232644.198,232742.9,232660.645,233160.429,
canvas.Screen,13_2_4,2023-01-14T04:34:30.675Z,,,d,,,90,499.924,timeout,eR.jpg,,,233742.6,233644.048,233135.553,233245.6,233160.429,233660.353,
flow.Sequence,13_2,2023-01-14T04:34:30.675Z,,,d,,,90,2983.057,completion,eR.jpg,,,233742.9,233644.048,230644.331,230743.4,230660.991,233660.353,
canvas.Screen,13_3_0,2023-01-14T04:34:31.175Z,,,b,,,0,500.077,timeout,e.jpg,,,234242.4,234143.863,233644.048,233743.1,233660.353,234160.43,
canvas.Screen,13_3_1,2023-01-14T04:34:32.175Z,,,b,,,0,999.715,timeout,e.jpg,,,235242.8,235143.706,234143.863,234242.7,234160.43,235160.145,
canvas.Screen,13_3_2,2023-01-14T04:34:32.675Z,,,b,,,0,500.047,timeout,e.jpg,,,235742.4,235643.757,235143.706,235243.1,235160.145,235660.192,
canvas.Screen,13_3_3,2023-01-14T04:34:33.134Z,,,b,TRUE,b,0,541.008,response,e.jpg,b,keypress(f),236202,236201.2,235643.757,235742.6,235660.192,236110.09,
canvas.Screen,13_3_4,2023-01-14T04:34:33.625Z,,,b,,,0,500.034,timeout,e.jpg,,,236692.3,236593.575,236093.636,236203.2,236110.09,236610.124,
flow.Sequence,13_3,2023-01-14T04:34:33.625Z,,,b,,,0,2933.222,completion,e.jpg,,,236692.6,236593.575,233644.048,233743,233660.353,236610.124,
canvas.Screen,13_4_0,2023-01-14T04:34:34.124Z,,,b,,,180,500.016,timeout,e.jpg,,,237192.1,237093.473,236593.575,236692.8,236610.124,237110.14,
canvas.Screen,13_4_1,2023-01-14T04:34:35.124Z,,,b,,,180,999.776,timeout,e.jpg,,,238192,238093.283,237093.473,237192.3,237110.14,238109.916,
canvas.Screen,13_4_2,2023-01-14T04:34:35.623Z,,,b,,,180,499.874,timeout,e.jpg,,,238691.8,238593.209,238093.283,238192.1,238109.916,238609.79,
canvas.Screen,13_4_3,2023-01-14T04:34:36.617Z,,,b,TRUE,b,180,1075.11,response,e.jpg,b,keypress(f),239685.7,239684.9,238593.209,238692.1,238609.79,239609.576,
canvas.Screen,13_4_4,2023-01-14T04:34:37.123Z,,,b,,,180,500.078,timeout,e.jpg,,,240191.9,240093.129,239592.617,239692.6,239609.576,240109.654,
flow.Sequence,13_4,2023-01-14T04:34:37.123Z,,,b,,,180,3483.005,completion,e.jpg,,,240192.2,240093.129,236593.575,236692.8,236610.124,240109.654,
canvas.Screen,13_5_0,2023-01-14T04:34:37.623Z,,,b,,,225,499.871,timeout,e.jpg,,,240691.7,240593.092,240093.129,240192.4,240109.654,240609.525,
canvas.Screen,13_5_1,2023-01-14T04:34:38.624Z,,,b,,,225,999.969,timeout,e.jpg,,,241692.3,241592.705,240593.092,240691.9,240609.525,241609.494,
canvas.Screen,13_5_2,2023-01-14T04:34:39.123Z,,,b,,,225,499.886,timeout,e.jpg,,,242191.5,242092.864,241592.705,241692.7,241609.494,242109.38,
canvas.Screen,13_5_3,2023-01-14T04:34:39.907Z,,,b,TRUE,b,225,865.32,response,e.jpg,b,keypress(f),242975.6,242974.7,242092.864,242191.7,242109.38,242892.631,
canvas.Screen,13_5_4,2023-01-14T04:34:40.406Z,,,b,,,225,499.744,timeout,e.jpg,,,243474.4,243375.817,242877.1,242986.1,242892.631,243392.375,
flow.Sequence,13_5,2023-01-14T04:34:40.406Z,,,b,,,225,3266.163,completion,e.jpg,,,243474.8,243375.817,240093.129,240192.4,240109.654,243392.375,
canvas.Screen,13_6_0,2023-01-14T04:34:40.906Z,,,d,,,0,500.151,timeout,eR.jpg,,,243974.4,243875.782,243375.817,243474.9,243392.375,243892.526,
canvas.Screen,13_6_1,2023-01-14T04:34:41.906Z,,,d,,,0,999.698,timeout,eR.jpg,,,244974.3,244875.714,243875.782,243974.6,243892.526,244892.224,
canvas.Screen,13_6_2,2023-01-14T04:34:42.406Z,,,d,,,0,499.932,timeout,eR.jpg,,,245474.4,245375.652,244875.714,244974.5,244892.224,245392.156,
canvas.Screen,13_6_3,2023-01-14T04:34:43.054Z,,,d,TRUE,d,0,729.944,response,eR.jpg,d,keypress(j),246122.7,246122.1,245375.652,245474.6,245392.156,246042.048,
canvas.Screen,13_6_4,2023-01-14T04:34:43.555Z,,,d,,,0,500.16,timeout,eR.jpg,,,246624,246525.441,246013.494,246123.2,246042.048,246542.208,
flow.Sequence,13_6,2023-01-14T04:34:43.556Z,,,d,,,0,3133.066,completion,eR.jpg,,,246624.3,246525.441,243375.817,243474.9,243392.375,246542.208,
canvas.Screen,13_7_0,2023-01-14T04:34:44.055Z,,,b,,,270,499.695,timeout,e.jpg,,,247124.1,247025.381,246525.441,246624.4,246542.208,247041.903,
canvas.Screen,13_7_1,2023-01-14T04:34:45.055Z,,,b,,,270,1000.047,timeout,e.jpg,,,248123.8,248025.233,247025.381,247124.4,247041.903,248041.95,
canvas.Screen,13_7_2,2023-01-14T04:34:45.555Z,,,b,,,270,499.938,timeout,e.jpg,,,248623.8,248525.357,248025.233,248124,248041.95,248541.888,
canvas.Screen,13_7_3,2023-01-14T04:34:46.071Z,,,b,TRUE,b,270,596.212,response,e.jpg,b,keypress(f),249139.6,249138.1,248525.357,248624.1,248541.888,249081.07,
canvas.Screen,13_7_4,2023-01-14T04:34:46.588Z,,,b,,,270,493.927,timeout,e.jpg,,,249656.8,249558.46,249042.619,249154.6,249081.07,249574.997,
flow.Sequence,13_7,2023-01-14T04:34:46.588Z,,,b,,,270,3016.252,completion,e.jpg,,,249657,249558.46,246525.441,246624.4,246542.208,249574.997,
canvas.Screen,13_8_0,2023-01-14T04:34:47.088Z,,,b,,,135,499.968,timeout,e.jpg,,,250156.8,250058.264,249558.46,249657.1,249574.997,250074.965,
canvas.Screen,13_8_1,2023-01-14T04:34:48.088Z,,,b,,,135,1000.119,timeout,e.jpg,,,251156.8,251058.172,250058.264,250156.9,250074.965,251075.084,
canvas.Screen,13_8_2,2023-01-14T04:34:48.588Z,,,b,,,135,499.909,timeout,e.jpg,,,251656.7,251558.056,251058.172,251156.9,251075.084,251574.993,
canvas.Screen,13_8_3,2023-01-14T04:34:49.417Z,,,b,TRUE,b,135,909.407,response,e.jpg,b,keypress(f),252485.4,252484.4,251558.056,251656.8,251574.993,252391.301,
canvas.Screen,13_8_4,2023-01-14T04:34:49.905Z,,,b,,,135,499.954,timeout,e.jpg,,,252973.3,252874.904,252375.34,252486.8,252391.301,252891.255,
flow.Sequence,13_8,2023-01-14T04:34:49.905Z,,,b,,,135,3299.907,completion,e.jpg,,,252973.6,252874.904,249558.46,249657.1,249574.997,252891.255,
canvas.Screen,13_9_0,2023-01-14T04:34:50.405Z,,,d,,,45,499.93,timeout,eR.jpg,,,253473.2,253374.629,252874.904,252973.8,252891.255,253391.185,
canvas.Screen,13_9_1,2023-01-14T04:34:51.405Z,,,d,,,45,999.905,timeout,eR.jpg,,,254473.6,254374.855,253374.629,253473.5,253391.185,254391.09,
canvas.Screen,13_9_2,2023-01-14T04:34:51.904Z,,,d,,,45,499.951,timeout,eR.jpg,,,254972.9,254874.358,254374.855,254473.7,254391.09,254891.041,
canvas.Screen,13_9_3,2023-01-14T04:34:52.784Z,,,d,TRUE,d,45,960.659,response,eR.jpg,d,keypress(j),255852.8,255851.7,254874.358,254973,254891.041,255774.032,
canvas.Screen,13_9_4,2023-01-14T04:34:53.288Z,,,d,,,45,500.152,timeout,eR.jpg,,,256356.4,256257.691,255757.401,255859.7,255774.032,256274.184,
flow.Sequence,13_9,2023-01-14T04:34:53.288Z,,,d,,,45,3366.436,completion,eR.jpg,,,256356.7,256257.691,252874.904,252973.7,252891.255,256274.184,
canvas.Screen,13_10_0,2023-01-14T04:34:53.787Z,,,d,,,270,499.9,timeout,eR.jpg,,,256856,256757.354,256257.691,256356.9,256274.184,256774.084,
canvas.Screen,13_10_1,2023-01-14T04:34:54.787Z,,,d,,,270,999.694,timeout,eR.jpg,,,257856,257757.333,256757.354,256856.2,256774.084,257773.778,
canvas.Screen,13_10_2,2023-01-14T04:34:55.287Z,,,d,,,270,500.013,timeout,eR.jpg,,,258356,258257.266,257757.333,257856.4,257773.778,258273.791,
canvas.Screen,13_10_3,2023-01-14T04:34:56.282Z,,,d,TRUE,d,270,1075.609,response,eR.jpg,d,keypress(j),259350.4,259349.4,258257.266,258356.2,258273.791,259273.695,
canvas.Screen,13_10_4,2023-01-14T04:34:56.787Z,,,d,,,270,500.141,timeout,eR.jpg,,,259855.7,259757.119,259257.515,259359.4,259273.695,259773.836,
flow.Sequence,13_10,2023-01-14T04:34:56.787Z,,,d,,,270,3482.935,completion,eR.jpg,,,259856.1,259757.119,256257.691,256356.8,256274.184,259773.836,
canvas.Screen,13_11_0,2023-01-14T04:34:57.288Z,,,d,,,135,499.803,timeout,eR.jpg,,,260356.8,260257.11,259757.119,259856.2,259773.836,260273.639,
canvas.Screen,13_11_1,2023-01-14T04:34:58.287Z,,,d,,,135,999.75,timeout,eR.jpg,,,261355.7,261257.019,260257.11,260356.9,260273.639,261273.389,
canvas.Screen,13_11_2,2023-01-14T04:34:58.787Z,,,d,,,135,499.953,timeout,eR.jpg,,,261855.4,261756.832,261257.019,261355.9,261273.389,261773.342,
canvas.Screen,13_11_3,2023-01-14T04:34:59.874Z,,,d,TRUE,d,135,1168.958,response,eR.jpg,d,keypress(j),262943.1,262942.3,261756.832,261855.9,261773.342,262856.527,
canvas.Screen,13_11_4,2023-01-14T04:35:00.370Z,,,d,,,135,499.906,timeout,eR.jpg,,,263438.7,263339.964,262840.655,262949.1,262856.527,263356.433,
flow.Sequence,13_11,2023-01-14T04:35:00.370Z,,,d,,,135,3566.128,completion,eR.jpg,,,263439,263339.964,259757.119,259856.2,259773.836,263356.433,
canvas.Screen,13_12_0,2023-01-14T04:35:00.870Z,,,b,,,315,500.204,timeout,e.jpg,,,263938.6,263839.944,263339.964,263439.2,263356.433,263856.637,
canvas.Screen,13_12_1,2023-01-14T04:35:01.870Z,,,b,,,315,999.661,timeout,e.jpg,,,264938.5,264839.844,263839.944,263938.7,263856.637,264856.298,
canvas.Screen,13_12_2,2023-01-14T04:35:02.370Z,,,b,,,315,499.859,timeout,e.jpg,,,265438.3,265339.73,264839.844,264938.6,264856.298,265356.157,
canvas.Screen,13_12_3,2023-01-14T04:35:02.890Z,,,b,TRUE,b,315,601.543,response,e.jpg,b,keypress(f),265958.5,265957.7,265339.73,265438.6,265356.157,265872.906,
canvas.Screen,13_12_4,2023-01-14T04:35:03.386Z,,,b,,,315,499.8,timeout,e.jpg,,,266455.1,266356.319,265857.119,265959.5,265872.906,266372.706,
flow.Sequence,13_12,2023-01-14T04:35:03.387Z,,,b,,,315,2999.886,completion,e.jpg,,,266455.4,266356.319,263339.964,263439.1,263356.433,266372.706,
canvas.Screen,13_13_0,2023-01-14T04:35:03.886Z,,,d,,,225,499.892,timeout,eR.jpg,,,266954.6,266856.07,266356.319,266455.5,266372.706,266872.598,
canvas.Screen,13_13_1,2023-01-14T04:35:04.886Z,,,d,,,225,999.856,timeout,eR.jpg,,,267954.6,267856.089,266856.07,266954.8,266872.598,267872.454,
canvas.Screen,13_13_2,2023-01-14T04:35:05.386Z,,,d,,,225,499.989,timeout,eR.jpg,,,268454.6,268355.941,267856.089,267954.8,267872.454,268372.443,
canvas.Screen,13_13_3,2023-01-14T04:35:06.256Z,,,d,TRUE,d,225,951.457,response,eR.jpg,d,keypress(j),269324.4,269323.9,268355.941,268454.8,268372.443,269238.992,
canvas.Screen,13_13_4,2023-01-14T04:35:06.754Z,,,d,,,225,500.033,timeout,eR.jpg,,,269822.7,269722.49,269223.771,269329.8,269238.992,269739.025,
flow.Sequence,13_13,2023-01-14T04:35:06.755Z,,,d,,,225,3349.784,completion,eR.jpg,,,269823.3,269722.49,266356.319,266455.5,266372.706,269739.025,
canvas.Screen,13_14_0,2023-01-14T04:35:07.252Z,,,d,,,180,500.035,timeout,eR.jpg,,,270321.1,270222.407,269722.49,269823.5,269739.025,270239.06,
canvas.Screen,13_14_1,2023-01-14T04:35:08.252Z,,,d,,,180,999.784,timeout,eR.jpg,,,271320.9,271222.363,270222.407,270321.2,270239.06,271238.844,
canvas.Screen,13_14_2,2023-01-14T04:35:08.752Z,,,d,,,180,500.052,timeout,eR.jpg,,,271820.9,271722.223,271222.363,271321.1,271238.844,271738.896,
canvas.Screen,13_14_3,2023-01-14T04:35:09.695Z,,,d,TRUE,d,180,1024.004,response,eR.jpg,d,keypress(j),272763.9,272762.9,271722.223,271821.2,271738.896,272671.822,
canvas.Screen,13_14_4,2023-01-14T04:35:10.186Z,,,d,,,180,500.223,timeout,eR.jpg,,,273254.3,273155.288,272656.138,272766.5,272671.822,273172.045,
flow.Sequence,13_14,2023-01-14T04:35:10.186Z,,,d,,,180,3416.263,completion,eR.jpg,,,273254.7,273155.288,269722.49,269823.4,269739.025,273172.045,
canvas.Screen,13_15_0,2023-01-14T04:35:10.685Z,,,d,,,315,499.924,timeout,eR.jpg,,,273753.7,273655.169,273155.288,273254.9,273172.045,273671.969,
canvas.Screen,13_15_1,2023-01-14T04:35:11.685Z,,,d,,,315,999.718,timeout,eR.jpg,,,274754,274655.467,273655.169,273753.9,273671.969,274671.687,
canvas.Screen,13_15_2,2023-01-14T04:35:12.185Z,,,d,,,315,499.856,timeout,eR.jpg,,,275254.1,275155.344,274655.467,274754.2,274671.687,275171.543,
canvas.Screen,13_15_3,2023-01-14T04:35:12.963Z,,,d,TRUE,d,315,859.757,response,eR.jpg,d,keypress(j),276031.8,276031.3,275155.344,275254.2,275171.543,275954.976,
canvas.Screen,13_15_4,2023-01-14T04:35:13.468Z,,,d,,,315,500.151,timeout,eR.jpg,,,276537,276438.285,275938.078,276037.3,275954.976,276455.127,
flow.Sequence,13_15,2023-01-14T04:35:13.469Z,,,d,,,315,3266.24,completion,eR.jpg,,,276537.3,276438.285,273155.288,273254.9,273172.045,276455.127,
flow.Loop,13,2023-01-14T04:35:13.469Z,,,,,,,51593.086,completion,,,,276537.5,276438.285,224828.368,224927.7,224845.199,276455.127,
canvas.Screen,14,2023-01-14T04:36:13.461Z,,,,,,,59991.624,timeout,,,,336529.2,336430.373,276438.285,276537.6,276455.127,336446.751,
15,2023-01-14T04:36:20.372Z,,,,,,,6993.049,form submission,,,,343440,343439.8,336430.373,336529.5,336446.751,343345.803,,
html.Page,16,2023-01-14T04:36:22.402Z,,,,,,,2124.497,form submission,,,,345470.4,345470.3,343331.494,343440,343345.803,345378.958,
html.Page,17,2023-01-14T04:36:25.000Z,,,,,,,2689.142,form submission,,,,348068.3,348068.1,345362.583,345470.5,345378.958,347978.533,
html.Page,18,2023-01-14T04:36:27.373Z,,,,,,,2462.767,form submission,,,,350441.3,350441.3,347962.11,348068.4,347978.533,350344.862,
html.Page,19,2023-01-14T04:36:29.826Z,,,,,,,2549.338,form submission,,,,352894.4,352894.2,350328.551,350441.3,350344.862,352811.285,
canvas.Screen,20,2023-01-14T04:36:30.825Z,,,,,,,1000.042,timeout,,,,353893.2,353794.659,352794.676,352894.5,352811.285,353811.327,
canvas.Screen,21_0_0,2023-01-14T04:36:31.324Z,,,b,,,45,499.772,timeout,2.jpg,,,354392.8,354294.559,353794.659,353893.5,353811.327,354311.099,
canvas.Screen,21_0_1,2023-01-14T04:36:32.325Z,,,b,,,45,1000.031,timeout,2.jpg,,,355393,355294.381,354294.559,354392.9,354311.099,355311.13,
canvas.Screen,21_0_2,2023-01-14T04:36:32.825Z,,,b,,,45,499.888,timeout,2.jpg,,,355893.1,355794.583,355294.381,355393.2,355311.13,355811.018,
canvas.Screen,21_0_3,2023-01-14T04:36:33.665Z,,,b,TRUE,b,45,921.082,response,2.jpg,b,keypress(f),356733.1,356732.1,355794.583,355893.3,355811.018,356644.047,
canvas.Screen,21_0_4,2023-01-14T04:36:34.158Z,,,b,,,45,500.433,timeout,2.jpg,,,357226.2,357127.462,356627.543,356744.4,356644.047,357144.48,
flow.Sequence,21_0,2023-01-14T04:36:34.158Z,,,b,,,45,3316.135,completion,2.jpg,,,357226.5,357127.462,353794.659,353893.5,353811.327,357144.48,
canvas.Screen,21_1_0,2023-01-14T04:36:34.658Z,,,d,,,90,499.823,timeout,2R.jpg,,,357726.7,357627.492,357127.462,357226.6,357144.48,357644.303,
canvas.Screen,21_1_1,2023-01-14T04:36:35.658Z,,,d,,,90,999.566,timeout,2R.jpg,,,358726.8,358627.422,357627.492,357727,357644.303,358643.869,
canvas.Screen,21_1_2,2023-01-14T04:36:36.158Z,,,d,,,90,500.114,timeout,2R.jpg,,,359226.6,359127.308,358627.422,358727.1,358643.869,359143.983,
canvas.Screen,21_1_3,2023-01-14T04:36:37.105Z,,,d,TRUE,d,90,1028.217,response,2R.jpg,d,keypress(j),360173.2,360172.2,359127.308,359226.9,359143.983,360093.801,
canvas.Screen,21_1_4,2023-01-14T04:36:37.608Z,,,d,,,90,499.973,timeout,2R.jpg,,,360676,360577.334,360061.668,360175.1,360093.801,360593.774,
flow.Sequence,21_1,2023-01-14T04:36:37.608Z,,,d,,,90,3432.854,completion,2R.jpg,,,360676.3,360577.334,357127.462,357226.6,357144.48,360593.774,
canvas.Screen,21_2_0,2023-01-14T04:36:38.107Z,,,b,,,180,499.995,timeout,2.jpg,,,361175.5,361076.948,360577.334,360676.5,360593.774,361093.769,
canvas.Screen,21_2_1,2023-01-14T04:36:39.107Z,,,b,,,180,999.533,timeout,2.jpg,,,362175.4,362076.82,361076.948,361175.7,361093.769,362093.302,
canvas.Screen,21_2_2,2023-01-14T04:36:39.607Z,,,b,,,180,500.199,timeout,2.jpg,,,362675.5,362576.846,362076.82,362175.7,362093.302,362593.501,
canvas.Screen,21_2_3,2023-01-14T04:36:40.628Z,,,b,TRUE,b,180,1102.299,response,2.jpg,b,keypress(f),363696.8,363695.8,362576.846,362675.8,362593.501,363626.683,
canvas.Screen,21_2_4,2023-01-14T04:36:41.140Z,,,b,,,180,499.866,timeout,2.jpg,,,364208.7,364109.988,363600.526,363708,363626.683,364126.549,
flow.Sequence,21_2,2023-01-14T04:36:41.141Z,,,b,,,180,3516.214,completion,2.jpg,,,364208.9,364109.988,360577.334,360676.4,360593.774,364126.549,
canvas.Screen,21_3_0,2023-01-14T04:36:41.640Z,,,d,,,225,499.937,timeout,2R.jpg,,,364708.6,364610.014,364109.988,364209.1,364126.549,364626.486,
canvas.Screen,21_3_1,2023-01-14T04:36:42.640Z,,,d,,,225,999.795,timeout,2R.jpg,,,365708.5,365609.84,364610.014,364708.7,364626.486,365626.281,
canvas.Screen,21_3_2,2023-01-14T04:36:43.140Z,,,d,,,225,500.107,timeout,2R.jpg,,,366208.3,366109.722,365609.84,365708.8,365626.281,366126.388,
canvas.Screen,21_3_3,2023-01-14T04:36:44.353Z,,,d,TRUE,d,225,1294.912,response,2R.jpg,d,keypress(j),367421.7,367421.3,366109.722,366208.5,366126.388,367342.81,
canvas.Screen,21_3_4,2023-01-14T04:36:44.856Z,,,d,,,225,499.794,timeout,2R.jpg,,,367924.8,367826.158,367327.817,367428.7,367342.81,367842.604,
flow.Sequence,21_3,2023-01-14T04:36:44.857Z,,,d,,,225,3699.609,completion,2R.jpg,,,367925.1,367826.158,364109.988,364209.1,364126.549,367842.604,
flow.Loop,21,2023-01-14T04:36:44.857Z,,,,,,,14014.831,completion,,,,367925.2,367826.158,353794.659,353893.5,353811.327,367842.604,
html.Page,22,2023-01-14T04:36:46.662Z,,,,,,,1887.296,form submission,,,,369730.2,369729.9,367826.158,367925.4,367842.604,369642.656,
canvas.Screen,23,2023-01-14T04:36:47.657Z,,,,,,,999.837,timeout,,,,370725,370625.802,369616.154,369730.4,369642.656,370642.493,
canvas.Screen,24_0_0,2023-01-14T04:36:48.156Z,,,b,,,270,499.858,timeout,2.jpg,,,371224.2,371125.612,370625.802,370725.2,370642.493,371142.351,
canvas.Screen,24_0_1,2023-01-14T04:36:49.156Z,,,b,,,270,999.99,timeout,2.jpg,,,372224.1,372125.61,371125.612,371224.3,371142.351,372142.341,
canvas.Screen,24_0_2,2023-01-14T04:36:49.657Z,,,b,,,270,499.601,timeout,2.jpg,,,372725.6,372625.367,372125.61,372224.3,372142.341,372641.942,
canvas.Screen,24_0_3,2023-01-14T04:36:51.268Z,,,b,TRUE,b,270,1693.158,response,2.jpg,b,keypress(f),374336,374335.1,372625.367,372725.8,372641.942,374241.714,
canvas.Screen,24_0_4,2023-01-14T04:36:51.755Z,,,b,,,270,500.143,timeout,2.jpg,,,374823.8,374725.212,374226.325,374343.5,374241.714,374741.857,
flow.Sequence,24_0,2023-01-14T04:36:51.756Z,,,b,,,270,4082.719,completion,2.jpg,,,374824.1,374725.212,370625.802,370725.2,370642.493,374741.857,
canvas.Screen,24_1_0,2023-01-14T04:36:52.256Z,,,b,,,90,499.853,timeout,2.jpg,,,375324.2,375225.034,374725.212,374824.3,374741.857,375241.71,
canvas.Screen,24_1_1,2023-01-14T04:36:53.255Z,,,b,,,90,999.946,timeout,2.jpg,,,376323.6,376224.964,375225.034,375324.6,375241.71,376241.656,
canvas.Screen,24_1_2,2023-01-14T04:36:53.756Z,,,b,,,90,499.844,timeout,2.jpg,,,376824.1,376724.883,376224.964,376323.7,376241.656,376741.5,
canvas.Screen,24_1_3,2023-01-14T04:36:54.351Z,,,b,TRUE,b,90,677.4,response,2.jpg,b,keypress(f),377419.3,377418.9,376724.883,376824.3,376741.5,377341.347,
canvas.Screen,24_1_4,2023-01-14T04:36:54.855Z,,,b,,,90,500.065,timeout,2.jpg,,,377923.2,377824.694,377324.581,377425,377341.347,377841.412,
flow.Sequence,24_1,2023-01-14T04:36:54.855Z,,,b,,,90,3082.837,completion,2.jpg,,,377923.5,377824.694,374725.212,374824.3,374741.857,377841.412,
canvas.Screen,24_2_0,2023-01-14T04:36:55.355Z,,,d,,,135,499.945,timeout,2R.jpg,,,378423.6,378325.022,377824.694,377923.7,377841.412,378341.357,
canvas.Screen,24_2_1,2023-01-14T04:36:56.355Z,,,d,,,135,999.876,timeout,2R.jpg,,,379423.1,379324.559,378325.022,378423.8,378341.357,379341.233,
canvas.Screen,24_2_2,2023-01-14T04:36:56.855Z,,,d,,,135,499.926,timeout,2R.jpg,,,379923.3,379824.627,379324.559,379423.3,379341.233,379841.159,
canvas.Screen,24_2_3,2023-01-14T04:36:57.598Z,,,d,TRUE,d,135,824.341,response,2R.jpg,d,keypress(j),380666.4,380665.5,379824.627,379923.6,379841.159,380574.537,
canvas.Screen,24_2_4,2023-01-14T04:36:58.088Z,,,d,,,135,499.817,timeout,2R.jpg,,,381156.5,381057.721,380558.163,380668.8,380574.537,381074.354,
flow.Sequence,24_2,2023-01-14T04:36:58.088Z,,,d,,,135,3216.309,completion,2R.jpg,,,381156.8,381057.721,377824.694,377923.7,377841.412,381074.354,
canvas.Screen,24_3_0,2023-01-14T04:36:58.588Z,,,b,,,135,500.102,timeout,2.jpg,,,381656.1,381557.76,381057.721,381156.9,381074.354,381574.456,
canvas.Screen,24_3_1,2023-01-14T04:36:59.588Z,,,b,,,135,999.645,timeout,2.jpg,,,382656.3,382557.59,381557.76,381656.3,381574.456,382574.101,
canvas.Screen,24_3_2,2023-01-14T04:37:00.088Z,,,b,,,135,499.832,timeout,2.jpg,,,383156.2,383057.622,382557.59,382656.5,382574.101,383073.933,
canvas.Screen,24_3_3,2023-01-14T04:37:00.822Z,,,b,TRUE,b,135,816.267,response,2.jpg,b,keypress(f),383890.7,383890.2,383057.622,383156.4,383073.933,383807.179,
canvas.Screen,24_3_4,2023-01-14T04:37:01.321Z,,,b,,,135,500.139,timeout,2.jpg,,,384389.2,384290.614,383785.275,383896.1,383807.179,384307.318,
flow.Sequence,24_3,2023-01-14T04:37:01.321Z,,,b,,,135,3216.26,completion,2.jpg,,,384389.6,384290.614,381057.721,381156.9,381074.354,384307.318,
canvas.Screen,24_4_0,2023-01-14T04:37:01.821Z,,,b,,,180,500.053,timeout,2.jpg,,,384889.8,384790.448,384290.614,384389.7,384307.318,384807.371,
canvas.Screen,24_4_1,2023-01-14T04:37:02.821Z,,,b,,,180,999.62,timeout,2.jpg,,,385889.2,385790.628,384790.448,384889.9,384807.371,385806.991,
canvas.Screen,24_4_2,2023-01-14T04:37:03.321Z,,,b,,,180,500.022,timeout,2.jpg,,,386389.1,386290.334,385790.628,385889.4,385806.991,386307.013,
canvas.Screen,24_4_3,2023-01-14T04:37:04.647Z,,,b,TRUE,b,180,1407.887,response,2.jpg,b,keypress(f),387715.7,387714.9,386290.334,386389.3,386307.013,387640.178,
canvas.Screen,24_4_4,2023-01-14T04:37:05.154Z,,,b,,,180,500.006,timeout,2.jpg,,,388222.1,388123.545,387623.361,387723,387640.178,388140.184,
flow.Sequence,24_4,2023-01-14T04:37:05.154Z,,,b,,,180,3816.227,completion,2.jpg,,,388222.4,388123.545,384290.614,384389.6,384307.318,388140.184,
canvas.Screen,24_5_0,2023-01-14T04:37:05.653Z,,,b,,,315,500.031,timeout,2.jpg,,,388721.8,388623.312,388123.545,388222.6,388140.184,388640.215,
canvas.Screen,24_5_1,2023-01-14T04:37:06.653Z,,,b,,,315,999.593,timeout,2.jpg,,,389721.9,389623.244,388623.312,388721.9,388640.215,389639.808,
canvas.Screen,24_5_2,2023-01-14T04:37:07.153Z,,,b,,,315,500.015,timeout,2.jpg,,,390221.8,390123.226,389623.244,389722.1,389639.808,390139.823,
canvas.Screen,24_5_3,2023-01-14T04:37:07.855Z,,,b,TRUE,b,315,783.077,response,2.jpg,b,keypress(f),390923.8,390922.9,390123.226,390222,390139.823,390839.549,
canvas.Screen,24_5_4,2023-01-14T04:37:08.354Z,,,b,,,315,500.064,timeout,2.jpg,,,391422.1,391323.166,390823.328,390931.3,390839.549,391339.613,
flow.Sequence,24_5,2023-01-14T04:37:08.354Z,,,b,,,315,3182.982,completion,2.jpg,,,391422.4,391323.166,388123.545,388222.6,388140.184,391339.613,
canvas.Screen,24_6_0,2023-01-14T04:37:08.855Z,,,b,,,225,500.026,timeout,2.jpg,,,391923.2,391823.036,391323.166,391422.5,391339.613,391839.639,
canvas.Screen,24_6_1,2023-01-14T04:37:09.853Z,,,b,,,225,999.889,timeout,2.jpg,,,392921.5,392822.795,391823.036,391923.4,391839.639,392839.528,
canvas.Screen,24_6_2,2023-01-14T04:37:10.353Z,,,b,,,225,499.89,timeout,2.jpg,,,393421.3,393322.722,392822.795,392921.7,392839.528,393339.418,
canvas.Screen,24_6_3,2023-01-14T04:37:11.167Z,,,b,TRUE,b,225,893.982,response,2.jpg,b,keypress(f),394234.9,394233.4,393322.722,393421.5,393339.418,394155.814,
canvas.Screen,24_6_4,2023-01-14T04:37:11.670Z,,,b,,,225,500.169,timeout,2.jpg,,,394738,394639.352,394135.329,394244.9,394155.814,394655.983,
flow.Sequence,24_6,2023-01-14T04:37:11.670Z,,,b,,,225,3299.739,completion,2.jpg,,,394738.4,394639.352,391323.166,391422.5,391339.613,394655.983,
canvas.Screen,24_7_0,2023-01-14T04:37:12.169Z,,,b,,,45,499.893,timeout,2.jpg,,,395237.9,395139.226,394639.352,394738.5,394655.983,395155.876,
canvas.Screen,24_7_1,2023-01-14T04:37:13.169Z,,,b,,,45,999.764,timeout,2.jpg,,,396237.7,396139.015,395139.226,395238,395155.876,396155.64,
canvas.Screen,24_7_2,2023-01-14T04:37:13.670Z,,,b,,,45,499.911,timeout,2.jpg,,,396737.6,396638.938,396139.015,396237.9,396155.64,396655.551,
canvas.Screen,24_7_3,2023-01-14T04:37:14.165Z,,,b,FALSE,b,45,576.849,response,2.jpg,d,keypress(j),397233.3,397232.4,396638.938,396737.7,396655.551,397155.636,
canvas.Screen,24_7_4,2023-01-14T04:37:14.670Z,,,b,,,45,499.701,timeout,2.jpg,,,397737.6,397638.909,397138.723,397240.3,397155.636,397655.337,
flow.Sequence,24_7,2023-01-14T04:37:14.670Z,,,b,,,45,2982.926,completion,2.jpg,,,397737.9,397638.909,394639.352,394738.5,394655.983,397655.337,
canvas.Screen,24_8_0,2023-01-14T04:37:15.169Z,,,d,,,45,500.064,timeout,2R.jpg,,,398237.2,398138.745,397638.909,397738,397655.337,398155.401,
canvas.Screen,24_8_1,2023-01-14T04:37:16.169Z,,,d,,,45,999.891,timeout,2R.jpg,,,399237.2,399138.624,398138.745,398237.4,398155.401,399155.292,
canvas.Screen,24_8_2,2023-01-14T04:37:16.669Z,,,d,,,45,499.811,timeout,2R.jpg,,,399737.2,399638.598,399138.624,399237.4,399155.292,399655.103,
canvas.Screen,24_8_3,2023-01-14T04:37:17.265Z,,,d,TRUE,d,45,676.797,response,2R.jpg,d,keypress(j),400332.5,400331.9,399638.598,399737.5,399655.103,400238.275,
canvas.Screen,24_8_4,2023-01-14T04:37:17.753Z,,,d,,,45,500.15,timeout,2R.jpg,,,400820.5,400721.816,400221.577,400333.3,400238.275,400738.425,
flow.Sequence,24_8,2023-01-14T04:37:17.753Z,,,d,,,45,3066.479,completion,2R.jpg,,,400820.9,400721.816,397638.909,397738,397655.337,400738.425,
canvas.Screen,24_9_0,2023-01-14T04:37:18.252Z,,,d,,,90,499.965,timeout,2R.jpg,,,401320.2,401221.716,400721.816,400821,400738.425,401238.39,
canvas.Screen,24_9_1,2023-01-14T04:37:19.254Z,,,d,,,90,999.753,timeout,2R.jpg,,,402322.1,402221.547,401221.716,401320.4,401238.39,402238.143,
canvas.Screen,24_9_2,2023-01-14T04:37:19.753Z,,,d,,,90,499.844,timeout,2R.jpg,,,402820.7,402721.591,402221.547,402322.3,402238.143,402737.987,
canvas.Screen,24_9_3,2023-01-14T04:37:20.711Z,,,d,TRUE,d,90,1039.913,response,2R.jpg,d,keypress(j),403778.9,403777.9,402721.591,402832.5,402737.987,403704.531,
canvas.Screen,24_9_4,2023-01-14T04:37:21.220Z,,,d,,,90,500.109,timeout,2R.jpg,,,404287.7,404187.935,403689.197,403787.5,403704.531,404204.64,
flow.Sequence,24_9,2023-01-14T04:37:21.220Z,,,d,,,90,3449.51,completion,2R.jpg,,,404288,404187.935,400721.816,400820.9,400738.425,404204.64,
canvas.Screen,24_10_0,2023-01-14T04:37:21.719Z,,,d,,,270,499.834,timeout,2R.jpg,,,404786.6,404688.104,404187.935,404288.1,404204.64,404704.474,
canvas.Screen,24_10_1,2023-01-14T04:37:22.719Z,,,d,,,270,999.839,timeout,2R.jpg,,,405786.3,405687.794,404688.104,404786.8,404704.474,405704.313,
canvas.Screen,24_10_2,2023-01-14T04:37:23.219Z,,,d,,,270,500.195,timeout,2R.jpg,,,406286.4,406187.749,405687.794,405786.5,405704.313,406204.508,
canvas.Screen,24_10_3,2023-01-14T04:37:24.146Z,,,d,TRUE,d,270,1008.292,response,2R.jpg,d,keypress(j),407213.8,407212.8,406187.749,406286.6,406204.508,407137.463,
canvas.Screen,24_10_4,2023-01-14T04:37:24.652Z,,,d,,,270,500.127,timeout,2R.jpg,,,407719.7,407620.826,407110.681,407223.2,407137.463,407637.59,
flow.Sequence,24_10,2023-01-14T04:37:24.652Z,,,d,,,270,3416.186,completion,2R.jpg,,,407720,407620.826,404187.935,404288,404204.64,407637.59,
canvas.Screen,24_11_0,2023-01-14T04:37:25.152Z,,,d,,,180,499.901,timeout,2R.jpg,,,408219.6,408120.834,407620.826,407720.2,407637.59,408137.491,
canvas.Screen,24_11_1,2023-01-14T04:37:26.152Z,,,d,,,180,999.809,timeout,2R.jpg,,,409219.3,409120.654,408120.834,408219.8,408137.491,409137.3,
canvas.Screen,24_11_2,2023-01-14T04:37:26.651Z,,,d,,,180,499.838,timeout,2R.jpg,,,409719.3,409620.614,409120.654,409219.5,409137.3,409637.138,
canvas.Screen,24_11_3,2023-01-14T04:37:27.809Z,,,d,TRUE,d,180,1237.962,response,2R.jpg,d,keypress(j),410876.3,410875.1,409620.614,409719.4,409637.138,410786.945,
canvas.Screen,24_11_4,2023-01-14T04:37:28.301Z,,,d,,,180,500.305,timeout,2R.jpg,,,411369.1,411270.428,410771.826,410877.8,410786.945,411287.25,
flow.Sequence,24_11,2023-01-14T04:37:28.302Z,,,d,,,180,3632.838,completion,2R.jpg,,,411369.4,411270.428,407620.826,407720.1,407637.59,411287.25,
canvas.Screen,24_12_0,2023-01-14T04:37:28.801Z,,,d,,,315,499.922,timeout,2R.jpg,,,411869.1,411770.438,411270.428,411369.6,411287.25,411787.172,
canvas.Screen,24_12_1,2023-01-14T04:37:29.801Z,,,d,,,315,999.726,timeout,2R.jpg,,,412868.9,412770.253,411770.438,411869.3,411787.172,412786.898,
canvas.Screen,24_12_2,2023-01-14T04:37:30.302Z,,,d,,,315,499.764,timeout,2R.jpg,,,413370.2,413270.309,412770.253,412869.1,412786.898,413286.662,
canvas.Screen,24_12_3,2023-01-14T04:37:31.381Z,,,d,TRUE,d,315,1161.338,response,2R.jpg,d,keypress(j),414449.1,414448,413270.309,413370.3,413286.662,414369.722,
canvas.Screen,24_12_4,2023-01-14T04:37:31.884Z,,,d,,,315,500.299,timeout,2R.jpg,,,414952,414853.295,414360.817,414459.9,414369.722,414870.021,
flow.Sequence,24_12,2023-01-14T04:37:31.885Z,,,d,,,315,3566.045,completion,2R.jpg,,,414952.3,414853.295,411270.428,411369.5,411287.25,414870.021,
canvas.Screen,24_13_0,2023-01-14T04:37:32.384Z,,,b,,,0,499.829,timeout,2.jpg,,,415452,415353.255,414853.295,414952.5,414870.021,415369.85,
canvas.Screen,24_13_1,2023-01-14T04:37:33.384Z,,,b,,,0,999.906,timeout,2.jpg,,,416451.9,416353.295,415353.255,415452.3,415369.85,416369.756,
canvas.Screen,24_13_2,2023-01-14T04:37:33.883Z,,,b,,,0,499.912,timeout,2.jpg,,,416951.3,416853.047,416353.295,416452.1,416369.756,416869.668,
canvas.Screen,24_13_3,2023-01-14T04:37:34.820Z,,,b,TRUE,b,0,1017.932,response,2.jpg,b,keypress(f),417888,417887.6,416853.047,416951.3,416869.668,417802.618,
canvas.Screen,24_13_4,2023-01-14T04:37:35.317Z,,,b,,,0,500.239,timeout,2.jpg,,,418385,418286.224,417786.689,417895.3,417802.618,418302.857,
flow.Sequence,24_13,2023-01-14T04:37:35.318Z,,,b,,,0,3416.203,completion,2.jpg,,,418385.3,418286.224,414853.295,414952.5,414870.021,418302.857,
canvas.Screen,24_14_0,2023-01-14T04:37:35.818Z,,,d,,,225,499.834,timeout,2R.jpg,,,418885.4,418786.032,418286.224,418385.5,418302.857,418802.691,
canvas.Screen,24_14_1,2023-01-14T04:37:36.817Z,,,d,,,225,999.901,timeout,2R.jpg,,,419884.5,419785.964,418786.032,418885.7,418802.691,419802.592,
canvas.Screen,24_14_2,2023-01-14T04:37:37.317Z,,,d,,,225,499.903,timeout,2R.jpg,,,420385.2,420285.846,419785.964,419884.7,419802.592,420302.495,
canvas.Screen,24_14_3,2023-01-14T04:37:38.639Z,,,d,TRUE,d,225,1403.205,response,2R.jpg,d,keypress(j),421706.6,421705.7,420285.846,420385.5,420302.495,421618.774,
canvas.Screen,24_14_4,2023-01-14T04:37:39.133Z,,,d,,,225,500.117,timeout,2R.jpg,,,422200.9,422102.247,421602.631,421714.8,421618.774,422118.891,
flow.Sequence,24_14,2023-01-14T04:37:39.133Z,,,d,,,225,3799.39,completion,2R.jpg,,,422201.2,422102.247,418286.224,418385.4,418302.857,422118.891,
canvas.Screen,24_15_0,2023-01-14T04:37:39.633Z,,,d,,,0,499.921,timeout,2R.jpg,,,422700.8,422602.241,422102.247,422201.4,422118.891,422618.812,
canvas.Screen,24_15_1,2023-01-14T04:37:40.633Z,,,d,,,0,999.899,timeout,2R.jpg,,,423700.7,423602.18,422602.241,422701,422618.812,423618.711,
canvas.Screen,24_15_2,2023-01-14T04:37:41.133Z,,,d,,,0,499.892,timeout,2R.jpg,,,424200.6,424102.003,423602.18,423700.9,423618.711,424118.603,
canvas.Screen,24_15_3,2023-01-14T04:37:41.695Z,,,d,TRUE,d,0,643.397,response,2R.jpg,d,keypress(j),424762.5,424762,424102.003,424200.8,424118.603,424668.411,
canvas.Screen,24_15_4,2023-01-14T04:37:42.183Z,,,d,,,0,500.194,timeout,2R.jpg,,,425250.3,425151.887,424664.136,424763,424668.411,425168.605,
flow.Sequence,24_15,2023-01-14T04:37:42.183Z,,,d,,,0,3032.996,completion,2R.jpg,,,425250.6,425151.887,422102.247,422201.3,422118.891,425168.605,
flow.Loop,24,2023-01-14T04:37:42.183Z,,,,,,,54509.394,completion,,,,425250.7,425151.887,370625.802,370725.2,370642.493,425168.605,
canvas.Screen,25_0_0,2023-01-14T04:37:42.683Z,,,b,,,0,499.94,timeout,2.jpg,,,425750.3,425651.799,425151.887,425250.8,425168.605,425668.545,
canvas.Screen,25_0_1,2023-01-14T04:37:43.682Z,,,b,,,0,999.545,timeout,2.jpg,,,426750.3,426651.667,425651.799,425750.5,425668.545,426668.09,
canvas.Screen,25_0_2,2023-01-14T04:37:44.182Z,,,b,,,0,500.177,timeout,2.jpg,,,427250.2,427151.667,426651.667,426750.5,426668.09,427168.267,
canvas.Screen,25_0_3,2023-01-14T04:37:44.958Z,,,b,TRUE,b,0,856.633,response,2.jpg,b,keypress(f),428026,428024.9,427151.667,427250.3,427168.267,427951.406,
canvas.Screen,25_0_4,2023-01-14T04:37:45.465Z,,,b,,,0,499.933,timeout,2.jpg,,,428533.2,428434.677,427934.775,428036.9,427951.406,428451.339,
flow.Sequence,25_0,2023-01-14T04:37:45.466Z,,,b,,,0,3266.072,completion,2.jpg,,,428533.5,428434.677,425151.887,425250.7,425168.605,428451.339,
canvas.Screen,25_1_0,2023-01-14T04:37:45.965Z,,,d,,,0,499.962,timeout,2R.jpg,,,429033.2,428934.671,428434.677,428533.6,428451.339,428951.301,
canvas.Screen,25_1_1,2023-01-14T04:37:46.965Z,,,d,,,0,999.879,timeout,2R.jpg,,,430033.2,429934.571,428934.671,429033.4,428951.301,429951.18,
canvas.Screen,25_1_2,2023-01-14T04:37:47.466Z,,,d,,,0,499.826,timeout,2R.jpg,,,430533.4,430434.751,429934.571,430033.5,429951.18,430451.006,
canvas.Screen,25_1_3,2023-01-14T04:37:48.216Z,,,d,TRUE,d,0,831.294,response,2R.jpg,d,keypress(j),431283.4,431282.3,430434.751,430533.6,430451.006,431200.899,
canvas.Screen,25_1_4,2023-01-14T04:37:48.715Z,,,d,,,0,500.239,timeout,2R.jpg,,,431783.1,431684.516,431185.486,431291.2,431200.899,431701.138,
flow.Sequence,25_1,2023-01-14T04:37:48.716Z,,,d,,,0,3233.177,completion,2R.jpg,,,431783.3,431684.516,428434.677,428533.5,428451.339,431701.138,
canvas.Screen,25_2_0,2023-01-14T04:37:49.215Z,,,d,,,135,500.008,timeout,2R.jpg,,,432283,432184.452,431684.516,431783.5,431701.138,432201.146,
canvas.Screen,25_2_1,2023-01-14T04:37:50.215Z,,,d,,,135,999.419,timeout,2R.jpg,,,433283.2,433184.527,432184.452,432283.2,432201.146,433200.565,
canvas.Screen,25_2_2,2023-01-14T04:37:50.715Z,,,d,,,135,500.181,timeout,2R.jpg,,,433783.1,433684.469,433184.527,433283.4,433200.565,433700.746,
canvas.Screen,25_2_3,2023-01-14T04:37:51.590Z,,,d,TRUE,d,135,956.154,response,2R.jpg,d,keypress(j),434657.6,434656.9,433684.469,433783.2,433700.746,434567.103,
canvas.Screen,25_2_4,2023-01-14T04:37:52.083Z,,,d,,,135,500.217,timeout,2R.jpg,,,435150.8,435050.5,434552.269,434658.6,434567.103,435067.32,
flow.Sequence,25_2,2023-01-14T04:37:52.083Z,,,d,,,135,3349.362,completion,2R.jpg,,,435151,435050.5,431684.516,431783.5,431701.138,435067.32,
canvas.Screen,25_3_0,2023-01-14T04:37:52.581Z,,,b,,,270,499.832,timeout,2.jpg,,,435649.3,435550.652,435050.5,435151.2,435067.32,435567.152,
canvas.Screen,25_3_1,2023-01-14T04:37:53.581Z,,,b,,,270,999.843,timeout,2.jpg,,,436648.9,436550.396,435550.652,435649.5,435567.152,436566.995,
canvas.Screen,25_3_2,2023-01-14T04:37:54.081Z,,,b,,,270,499.896,timeout,2.jpg,,,437149,437050.414,436550.396,436649.2,436566.995,437066.891,
canvas.Screen,25_3_3,2023-01-14T04:37:54.951Z,,,b,TRUE,b,270,951.109,response,2.jpg,b,keypress(f),438018.9,438018,437050.414,437149.2,437066.891,437933.284,
canvas.Screen,25_3_4,2023-01-14T04:37:55.448Z,,,b,,,270,500.228,timeout,2.jpg,,,438515.5,438416.815,437917.429,438027,437933.284,438433.512,
flow.Sequence,25_3,2023-01-14T04:37:55.448Z,,,b,,,270,3349.495,completion,2.jpg,,,438515.8,438416.815,435050.5,435151.2,435067.32,438433.512,
canvas.Screen,25_4_0,2023-01-14T04:37:55.948Z,,,d,,,180,499.843,timeout,2R.jpg,,,439015.5,438916.972,438416.815,438516,438433.512,438933.355,
canvas.Screen,25_4_1,2023-01-14T04:37:56.948Z,,,d,,,180,999.728,timeout,2R.jpg,,,440015.3,439916.59,438916.972,439015.7,438933.355,439933.083,
canvas.Screen,25_4_2,2023-01-14T04:37:57.447Z,,,d,,,180,500.148,timeout,2R.jpg,,,440515.2,440416.781,439916.59,440015.7,439933.083,440433.231,
canvas.Screen,25_4_3,2023-01-14T04:37:57.996Z,,,d,TRUE,d,180,629.869,response,2R.jpg,d,keypress(j),441064,441063.1,440416.781,440515.5,440433.231,440983.266,
canvas.Screen,25_4_4,2023-01-14T04:37:58.497Z,,,d,,,180,499.88,timeout,2R.jpg,,,441565.1,441466.509,440966.278,441064.7,440983.266,441483.146,
flow.Sequence,25_4,2023-01-14T04:37:58.498Z,,,d,,,180,3032.997,completion,2R.jpg,,,441565.5,441466.509,438416.815,438516,438433.512,441483.146,
canvas.Screen,25_5_0,2023-01-14T04:37:58.997Z,,,b,,,225,500.002,timeout,2.jpg,,,442065,441966.502,441466.509,441565.6,441483.146,441983.148,
canvas.Screen,25_5_1,2023-01-14T04:37:59.997Z,,,b,,,225,999.653,timeout,2.jpg,,,443065,442966.421,441966.502,442065.2,441983.148,442982.801,
canvas.Screen,25_5_2,2023-01-14T04:38:00.497Z,,,b,,,225,499.932,timeout,2.jpg,,,443564.9,443466.096,442966.421,443065.3,442982.801,443482.733,
canvas.Screen,25_5_3,2023-01-14T04:38:01.068Z,,,b,FALSE,b,225,652.667,response,2.jpg,d,keypress(j),444136.3,444135.4,443466.096,443565.1,443482.733,444049.134,
canvas.Screen,25_5_4,2023-01-14T04:38:01.565Z,,,b,,,225,500.256,timeout,2.jpg,,,444632.7,444532.642,444033.495,444142.1,444049.134,444549.39,
flow.Sequence,25_5,2023-01-14T04:38:01.565Z,,,b,,,225,3049.496,completion,2.jpg,,,444633.3,444532.642,441466.509,441565.5,441483.146,444549.39,
canvas.Screen,25_6_0,2023-01-14T04:38:02.063Z,,,d,,,270,499.85,timeout,2R.jpg,,,445131.3,445032.607,444532.642,444633.5,444549.39,445049.24,
canvas.Screen,25_6_1,2023-01-14T04:38:03.063Z,,,d,,,270,999.778,timeout,2R.jpg,,,446131.1,446032.488,445032.607,445131.4,445049.24,446049.018,
