sender,sender_type,sender_id,timestamp,meta,,answer,correct,correctResponse,deg,duration,ended_on,image,response,response_action,time_commit,time_end,time_render,time_run,time_show,time_switch,url
イントロ1,html.Page,0,2023-01-15T12:11:14.554Z,"{""labjs_version"":""20.2.4"",""labjs_build"":{""flavor"":""development"",""commit"":""f5b4a49f956347addd546a832a3327688c2c0fef""},""location"":""https://labjs.felixhenninger.com/api/labjs_preview/index.html"",""userAgent"":""Mozilla/5.0 (Windows NT 10.0; Win64; x64) AppleWebKit/537.36 (KHTML, like Gecko) Chrome/108.0.0.0 Safari/537.36"",""platform"":""Win32"",""language"":""ja"",""locale"":""ja"",""timeZone"":""Asia/Tokyo"",""timezoneOffset"":-540,""screen_width"":1536,""screen_height"":864,""scroll_width"":1148,""scroll_height"":710,""window_innerWidth"":1148,""window_innerHeight"":758,""devicePixelRatio"":1.25}",,,,,,14412.98699961853,form submission,,,,15586.299999713898,15585.89999961853,756.613,1323.7999997138977,1172.913,15443.817,{}
イントロ2,html.Page,1,2023-01-15T12:11:20.578Z,,,,,,,6166.7829999046335,form submission,,,,21610.699999809265,21610.599999904633,15410.702,15586.599999904633,15443.817,21455.306,
イントロ3,html.Page,2,2023-01-15T12:11:45.809Z,,,,,,,25386.493999713897,form submission,,,,46841.89999961853,46841.7999997139,21438.634,21610.799999713898,21455.306,46699.913,
イントロ4,html.Page,3,2023-01-15T12:11:54.558Z,,,,,,,8891.087,form submission,,,,55591.199999809265,55591,46683.31,46842,46699.913,55442.306,
イントロ5,html.Page,4,2023-01-15T12:11:59.468Z,,,,,,,5058.694000000003,form submission,,,,60501.199999809265,60501,55425.645,55591.2999997139,55442.306,60354.624,
できるだけ早く正確に,canvas.Screen,5,2023-01-15T12:12:00.331Z,,,,,,,849.3089999999938,timeout,,,,61364.199999809265,61363.89999961853,60338.24,60501.39999961853,60354.624,61203.933,
空白時間1 (0.5秒),canvas.Screen,6_0_0,2023-01-15T12:12:00.691Z,,,b,,,270,349.70900000000256,timeout,b.jpg,,,61723.199999809265,61722.89999961853,61363.89999961853,61364.39999961853,61203.933,61553.642,
注視(1秒),canvas.Screen,6_0_1,2023-01-15T12:12:01.531Z,,,b,,,270,849.2160000000003,timeout,b.jpg,,,62563.89999961853,62563.59999990463,61722.89999961853,61723.5,61553.642,62402.858,
空白時間2 (0.5秒),canvas.Screen,6_0_2,2023-01-15T12:12:01.884Z,,,b,,,270,349.77300000000105,timeout,b.jpg,,,62916.59999990463,62916.39999961853,62563.59999990463,62564,62402.858,62752.631,
刺激提示,canvas.Screen,6_0_3,2023-01-15T12:12:03.316Z,,,b,false,b,270,1595.3689999999988,response,b.jpg,d,keypress(j),64348.7999997139,64348,62916.39999961853,62916.59999990463,62752.631,64201.235,
フィードバック(0.5秒),canvas.Screen,6_0_4,2023-01-15T12:12:03.683Z,,,b,,,270,349.77500000000146,timeout,b.jpg,,,64715.89999961853,64715.59999990463,64184.653,64349.7999997139,64201.235,64551.01,
トライアル,flow.Sequence,6_0,2023-01-15T12:12:03.683Z,,,b,,,270,3511.6669999046353,completion,b.jpg,,,64716.09999990463,64715.59999990463,61363.89999961853,61364.2999997139,61203.933,64551.01,
空白時間1 (0.5秒),canvas.Screen,6_1_0,2023-01-15T12:12:04.035Z,,,d,,,135,349.7239999999947,timeout,d.jpg,,,65067.89999961853,65067.699999809265,64715.59999990463,64716.199999809265,64551.01,64900.734,
注視(1秒),canvas.Screen,6_1_1,2023-01-15T12:12:04.876Z,,,d,,,135,849.2750000000087,timeout,d.jpg,,,65908.2999997139,65907.7999997139,65067.699999809265,65068.09999990463,64900.734,65750.009,
空白時間2 (0.5秒),canvas.Screen,6_1_2,2023-01-15T12:12:05.235Z,,,d,,,135,349.650999999998,timeout,d.jpg,,,66267.89999961853,66267.69999980927,65907.7999997139,65908.59999990463,65750.009,66099.66,
刺激提示,canvas.Screen,6_1_3,2023-01-15T12:12:07.637Z,,,d,true,d,135,2569.639999713894,response,d.jpg,d,keypress(j),68669.7999997139,68669.2999997139,66267.69999980927,66267.89999961853,66099.66,68530.8,
フィードバック(0.5秒),canvas.Screen,6_1_4,2023-01-15T12:12:08.019Z,,,d,,,135,349.75999999999476,timeout,d.jpg,,,69051.39999961853,69051.19999980927,68514.208,68681.39999961853,68530.8,68880.56,
トライアル,flow.Sequence,6_1,2023-01-15T12:12:08.019Z,,,d,,,135,4500.189999809263,completion,d.jpg,,,69051.59999990463,69051.19999980927,64715.59999990463,64716.09999990463,64551.01,68880.56,
空白時間1 (0.5秒),canvas.Screen,6_2_0,2023-01-15T12:12:08.363Z,,,b,,,0,349.7189999999973,timeout,b.jpg,,,69395.69999980927,69395.5,69051.19999980927,69051.59999990463,68880.56,69230.279,
注視(1秒),canvas.Screen,6_2_1,2023-01-15T12:12:09.203Z,,,b,,,0,832.5180000000109,timeout,b.jpg,,,70235.5,70235.2999997139,69395.5,69395.89999961853,69230.279,70062.797,
空白時間2 (0.5秒),canvas.Screen,6_2_2,2023-01-15T12:12:09.547Z,,,b,,,0,349.86299999999756,timeout,b.jpg,,,70579.7999997139,70579.2999997139,70235.2999997139,70235.59999990463,70062.797,70412.66,
刺激提示,canvas.Screen,6_2_3,2023-01-15T12:12:10.407Z,,,b,true,b,0,1025.6399997138942,response,b.jpg,b,keypress(f),71439.39999961853,71438.2999997139,70579.2999997139,70580,70412.66,71295.151,
フィードバック(0.5秒),canvas.Screen,6_2_4,2023-01-15T12:12:10.779Z,,,b,,,0,349.7850000000035,timeout,b.jpg,,,71811.7999997139,71811.39999961853,71278.454,71441.7999997139,71295.151,71644.936,
トライアル,flow.Sequence,6_2,2023-01-15T12:12:10.780Z,,,b,,,0,2930.8399996185326,completion,b.jpg,,,71812.19999980927,71811.39999961853,69051.19999980927,69051.59999990463,68880.56,71644.936,
空白時間1 (0.5秒),canvas.Screen,6_3_0,2023-01-15T12:12:11.131Z,,,b,,,45,349.61299999999756,timeout,b.jpg,,,72163.2999997139,72163,71811.39999961853,71812.59999990463,71644.936,71994.549,
注視(1秒),canvas.Screen,6_3_1,2023-01-15T12:12:11.971Z,,,b,,,45,849.2679999999964,timeout,b.jpg,,,73003.7999997139,73003.39999961853,72163,72163.5,71994.549,72843.817,
空白時間2 (0.5秒),canvas.Screen,6_3_2,2023-01-15T12:12:12.331Z,,,b,,,45,349.66100000000733,timeout,b.jpg,,,73364.09999990463,73364,73003.39999961853,73004.09999990463,72843.817,73193.478,
刺激提示,canvas.Screen,6_3_3,2023-01-15T12:12:13.295Z,,,b,true,b,45,1133.821999713895,response,b.jpg,b,keypress(f),74328,74327.2999997139,73364,73364.19999980927,73193.478,74175.903,
フィードバック(0.5秒),canvas.Screen,6_3_4,2023-01-15T12:12:13.659Z,,,b,,,45,350.1049999999959,timeout,b.jpg,,,74691.5,74691.09999990463,74159.513,74330.09999990463,74175.903,74526.008,
トライアル,flow.Sequence,6_3,2023-01-15T12:12:13.659Z,,,b,,,45,3046.163999904631,completion,b.jpg,,,74692.09999990463,74691.09999990463,71811.39999961853,71812.5,71644.936,74526.008,
空白時間1 (0.5秒),canvas.Screen,6_4_0,2023-01-15T12:12:14.011Z,,,d,,,90,349.3709999999992,timeout,d.jpg,,,75043.89999961853,75043.39999961853,74691.09999990463,74692.59999990463,74526.008,74875.379,
注視(1秒),canvas.Screen,6_4_1,2023-01-15T12:12:14.851Z,,,d,,,90,849.2069999999949,timeout,d.jpg,,,75883.89999961853,75883.69999980927,75043.39999961853,75044.19999980927,74875.379,75724.586,
空白時間2 (0.5秒),canvas.Screen,6_4_2,2023-01-15T12:12:15.211Z,,,d,,,90,349.76200000000244,timeout,d.jpg,,,76244.09999990463,76243.59999990463,75883.69999980927,75884.09999990463,75724.586,76074.348,
刺激提示,canvas.Screen,6_4_3,2023-01-15T12:12:15.947Z,,,d,true,d,90,904.7519999046344,response,d.jpg,d,keypress(j),76979.7999997139,76979.09999990463,76243.59999990463,76244.2999997139,76074.348,76840.275,
フィードバック(0.5秒),canvas.Screen,6_4_4,2023-01-15T12:12:16.324Z,,,d,,,90,349.81400000001304,timeout,d.jpg,,,77356.89999961853,77356.69999980927,76823.98,76994.5,76840.275,77190.089,
トライアル,flow.Sequence,6_4,2023-01-15T12:12:16.324Z,,,d,,,90,2830.6919998092635,completion,d.jpg,,,77357,77356.69999980927,74691.09999990463,74692.5,74526.008,77190.089,
空白時間1 (0.5秒),canvas.Screen,6_5_0,2023-01-15T12:12:16.676Z,,,d,,,45,349.76699999999255,timeout,d.jpg,,,77708.39999961853,77708,77356.69999980927,77357.09999990463,77190.089,77539.856,
注視(1秒),canvas.Screen,6_5_1,2023-01-15T12:12:17.515Z,,,d,,,45,849.1440000000002,timeout,d.jpg,,,78547.7999997139,78547.39999961853,77708,77708.59999990463,77539.856,78389,
空白時間2 (0.5秒),canvas.Screen,6_5_2,2023-01-15T12:12:17.874Z,,,d,,,45,349.8099999999977,timeout,d.jpg,,,78907.09999990463,78906.7999997139,78547.39999961853,78548,78389,78738.81,
刺激提示,canvas.Screen,6_5_3,2023-01-15T12:12:19.367Z,,,d,true,d,45,1660.1900000000023,response,d.jpg,d,keypress(j),80399.5,80399,78906.7999997139,78907.39999961853,78738.81,80253.964,
フィードバック(0.5秒),canvas.Screen,6_5_4,2023-01-15T12:12:19.740Z,,,d,,,45,349.7009999999864,timeout,d.jpg,,,80772.2999997139,80772,80237.797,80400.2999997139,80253.964,80603.665,
トライアル,flow.Sequence,6_5,2023-01-15T12:12:19.740Z,,,d,,,45,3581.910999999993,completion,d.jpg,,,80772.7999997139,80772,77356.69999980927,77357.09999990463,77190.089,80603.665,
空白時間1 (0.5秒),canvas.Screen,6_6_0,2023-01-15T12:12:20.213Z,,,d,,,270,499.7640000000101,timeout,d.jpg,,,81245.39999961853,81086.689,80772,80773.09999990463,80603.665,81103.429,
注視(1秒),canvas.Screen,6_6_1,2023-01-15T12:12:21.083Z,,,d,,,270,849.0929999999935,timeout,d.jpg,,,82115.5,82115.19999980927,81086.689,81245.59999990463,81103.429,81952.522,
空白時間2 (0.5秒),canvas.Screen,6_6_2,2023-01-15T12:12:21.436Z,,,d,,,270,349.6860000000015,timeout,d.jpg,,,82468.7999997139,82468.5,82115.19999980927,82115.69999980927,81952.522,82302.208,
刺激提示,canvas.Screen,6_6_3,2023-01-15T12:12:22.319Z,,,d,true,d,270,1048.3919999046338,response,d.jpg,d,keypress(j),83351.59999990463,83350.59999990463,82468.5,82469,82302.208,83218.002,
フィードバック(0.5秒),canvas.Screen,6_6_4,2023-01-15T12:12:22.699Z,,,d,,,270,349.9240000000136,timeout,d.jpg,,,83731.59999990463,83731.09999990463,83201.387,83373.09999990463,83218.002,83567.926,
トライアル,flow.Sequence,6_6,2023-01-15T12:12:22.699Z,,,d,,,270,3127.434999904639,completion,d.jpg,,,83732,83731.09999990463,80772,80773.09999990463,80603.665,83567.926,
空白時間1 (0.5秒),canvas.Screen,6_7_0,2023-01-15T12:12:23.177Z,,,b,,,135,499.4109999999928,timeout,b.jpg,,,84209.2999997139,84050.648,83731.09999990463,83732.2999997139,83567.926,84067.337,
注視(1秒),canvas.Screen,6_7_1,2023-01-15T12:12:24.043Z,,,b,,,135,849.3899999999994,timeout,b.jpg,,,85075.89999961853,85075.59999990463,84050.648,84209.59999990463,84067.337,84916.727,
空白時間2 (0.5秒),canvas.Screen,6_7_2,2023-01-15T12:12:24.403Z,,,b,,,135,349.56200000000536,timeout,b.jpg,,,85436,85435.89999961853,85075.59999990463,85076.19999980927,84916.727,85266.289,
刺激提示,canvas.Screen,6_7_3,2023-01-15T12:12:25.561Z,,,b,true,b,135,1326.0109997138934,response,b.jpg,b,keypress(f),86593.2999997139,86592.2999997139,85435.89999961853,85436,85266.289,86448.59,
フィードバック(0.5秒),canvas.Screen,6_7_4,2023-01-15T12:12:25.931Z,,,b,,,135,349.75100000000384,timeout,b.jpg,,,86963.39999961853,86963.19999980927,86431.95,86596.19999980927,86448.59,86798.341,
トライアル,flow.Sequence,6_7,2023-01-15T12:12:25.931Z,,,b,,,135,3395.2739998092584,completion,b.jpg,,,86963.5,86963.19999980927,83731.09999990463,83732.19999980927,83567.926,86798.341,
空白時間1 (0.5秒),canvas.Screen,6_8_0,2023-01-15T12:12:26.283Z,,,b,,,90,349.5929999999935,timeout,b.jpg,,,87315.39999961853,87315.19999980927,86963.19999980927,86963.59999990463,86798.341,87147.934,
注視(1秒),canvas.Screen,6_8_1,2023-01-15T12:12:27.123Z,,,b,,,90,849.3240000000078,timeout,b.jpg,,,88155.2999997139,88154.89999961853,87315.19999980927,87315.5,87147.934,87997.258,
空白時間2 (0.5秒),canvas.Screen,6_8_2,2023-01-15T12:12:27.483Z,,,b,,,90,349.67399999999907,timeout,b.jpg,,,88515.59999990463,88515.39999961853,88154.89999961853,88155.59999990463,87997.258,88346.932,
刺激提示,canvas.Screen,6_8_3,2023-01-15T12:12:28.257Z,,,b,true,b,90,942.367999713897,response,b.jpg,b,keypress(f),89290.19999980927,89289.2999997139,88515.39999961853,88515.69999980927,88346.932,89162.796,
フィードバック(0.5秒),canvas.Screen,6_8_4,2023-01-15T12:12:28.645Z,,,b,,,90,349.83000000000175,timeout,b.jpg,,,89677.2999997139,89676.89999961853,89146.172,89309.5,89162.796,89512.626,
トライアル,flow.Sequence,6_8,2023-01-15T12:12:28.645Z,,,b,,,90,2878.55899961853,completion,b.jpg,,,89677.7999997139,89676.89999961853,86963.19999980927,86963.59999990463,86798.341,89512.626,
空白時間1 (0.5秒),canvas.Screen,6_9_0,2023-01-15T12:12:28.995Z,,,b,,,315,349.6929999999993,timeout,b.jpg,,,90028,90027.89999961853,89676.89999961853,89678.09999990463,89512.626,89862.319,
注視(1秒),canvas.Screen,6_9_1,2023-01-15T12:12:29.843Z,,,b,,,315,849.2329999999929,timeout,b.jpg,,,90876.19999980927,90876.09999990463,90027.89999961853,90028.2999997139,89862.319,90711.552,
空白時間2 (0.5秒),canvas.Screen,6_9_2,2023-01-15T12:12:30.320Z,,,b,,,315,499.56700000001,timeout,b.jpg,,,91352.7999997139,91194.436,90876.09999990463,90876.2999997139,90711.552,91211.119,
刺激提示,canvas.Screen,6_9_3,2023-01-15T12:12:31.052Z,,,b,true,b,315,872.9809999046265,response,b.jpg,b,keypress(f),92085.19999980927,92084.09999990463,91194.436,91353,91211.119,91944.03,
フィードバック(0.5秒),canvas.Screen,6_9_4,2023-01-15T12:12:31.427Z,,,b,,,315,349.3709999999992,timeout,b.jpg,,,92459.39999961853,92459.2999997139,91927.175,92087.2999997139,91944.03,92293.401,
トライアル,flow.Sequence,6_9,2023-01-15T12:12:31.427Z,,,b,,,315,2946.673999713894,completion,b.jpg,,,92459.59999990463,92459.2999997139,89676.89999961853,89678,89512.626,92293.401,
空白時間1 (0.5秒),canvas.Screen,6_10_0,2023-01-15T12:12:31.779Z,,,b,,,180,349.77300000000105,timeout,b.jpg,,,92811.69999980927,92811.5,92459.2999997139,92459.59999990463,92293.401,92643.174,
注視(1秒),canvas.Screen,6_10_1,2023-01-15T12:12:32.619Z,,,b,,,180,849.2140000000072,timeout,b.jpg,,,93651.39999961853,93651.2999997139,92811.5,92811.69999980927,92643.174,93492.388,
空白時間2 (0.5秒),canvas.Screen,6_10_2,2023-01-15T12:12:32.979Z,,,b,,,180,349.71600000000035,timeout,b.jpg,,,94012.19999980927,94011.89999961853,93651.2999997139,93651.5,93492.388,93842.104,
刺激提示,canvas.Screen,6_10_3,2023-01-15T12:12:34.220Z,,,b,false,b,180,1410.195999713891,response,b.jpg,d,keypress(j),95252.7999997139,95252.2999997139,94011.89999961853,94012.2999997139,93842.104,95107.697,
フィードバック(0.5秒),canvas.Screen,6_10_4,2023-01-15T12:12:34.595Z,,,b,,,180,349.7060000000056,timeout,b.jpg,,,95627.89999961853,95627.69999980927,95090.985,95261.2999997139,95107.697,95457.403,
トライアル,flow.Sequence,6_10,2023-01-15T12:12:34.595Z,,,b,,,180,3334.298999809267,completion,b.jpg,,,95628.09999990463,95627.69999980927,92459.2999997139,92459.59999990463,92293.401,95457.403,
空白時間1 (0.5秒),canvas.Screen,6_11_0,2023-01-15T12:12:34.940Z,,,d,,,180,349.9759999999951,timeout,d.jpg,,,95972.2999997139,95972,95627.69999980927,95628.09999990463,95457.403,95807.379,
注視(1秒),canvas.Screen,6_11_1,2023-01-15T12:12:35.787Z,,,d,,,180,849.3359999999957,timeout,d.jpg,,,96820,96819.7999997139,95972,95972.39999961853,95807.379,96656.715,
空白時間2 (0.5秒),canvas.Screen,6_11_2,2023-01-15T12:12:36.139Z,,,d,,,180,349.53399999999965,timeout,d.jpg,,,97171.2999997139,97170.7999997139,96819.7999997139,96820.09999990463,96656.715,97006.249,
刺激提示,canvas.Screen,6_11_3,2023-01-15T12:12:37.727Z,,,d,true,d,180,1752.3509999046364,response,d.jpg,d,keypress(j),98759.59999990463,98758.59999990463,97170.7999997139,97171.5,97006.249,98621.342,
フィードバック(0.5秒),canvas.Screen,6_11_4,2023-01-15T12:12:38.107Z,,,d,,,180,349.7079999999987,timeout,d.jpg,,,99140,99139.39999961853,98604.623,98777.19999980927,98621.342,98971.05,
トライアル,flow.Sequence,6_11,2023-01-15T12:12:38.108Z,,,d,,,180,3681.9969996185246,completion,d.jpg,,,99140.5,99139.39999961853,95627.69999980927,95628.09999990463,95457.403,98971.05,
空白時間1 (0.5秒),canvas.Screen,6_12_0,2023-01-15T12:12:38.460Z,,,b,,,225,349.6999999999971,timeout,b.jpg,,,99492.59999990463,99492.2999997139,99139.39999961853,99140.69999980927,98971.05,99320.75,
注視(1秒),canvas.Screen,6_12_1,2023-01-15T12:12:39.298Z,,,b,,,225,849.2329999999929,timeout,b.jpg,,,100331.09999990463,100330.7999997139,99492.2999997139,99492.7999997139,99320.75,100169.983,
空白時間2 (0.5秒),canvas.Screen,6_12_2,2023-01-15T12:12:39.651Z,,,b,,,225,349.73300000000745,timeout,b.jpg,,,100684.09999990463,100683.89999961853,100330.7999997139,100331.2999997139,100169.983,100519.716,
刺激提示,canvas.Screen,6_12_3,2023-01-15T12:12:40.914Z,,,b,false,b,225,1426.2839999999997,response,b.jpg,d,keypress(j),101947.09999990463,101946,100683.89999961853,100684.19999980927,100519.716,101801.858,
フィードバック(0.5秒),canvas.Screen,6_12_4,2023-01-15T12:12:41.283Z,,,b,,,225,349.8550000000105,timeout,b.jpg,,,102315.7999997139,102315.5,101785.41,101950,101801.858,102151.713,
トライアル,flow.Sequence,6_12,2023-01-15T12:12:41.283Z,,,b,,,225,3344.449999999997,completion,b.jpg,,,102316.19999980927,102315.5,99139.39999961853,99140.69999980927,98971.05,102151.713,
空白時間1 (0.5秒),canvas.Screen,6_13_0,2023-01-15T12:12:41.635Z,,,d,,,225,349.8220000000001,timeout,d.jpg,,,102667.69999980927,102667.5,102315.5,102316.2999997139,102151.713,102501.535,
注視(1秒),canvas.Screen,6_13_1,2023-01-15T12:12:42.475Z,,,d,,,225,832.349000000002,timeout,d.jpg,,,103507.5,103507.09999990463,102667.5,102667.7999997139,102501.535,103333.884,
空白時間2 (0.5秒),canvas.Screen,6_13_2,2023-01-15T12:12:42.819Z,,,d,,,225,349.69499999999243,timeout,d.jpg,,,103851.7999997139,103851.5,103507.09999990463,103507.69999980927,103333.884,103683.579,
刺激提示,canvas.Screen,6_13_3,2023-01-15T12:12:44.732Z,,,d,true,d,225,2080.1209998092672,response,d.jpg,d,keypress(j),105764.39999961853,105763.69999980927,103851.5,103852.09999990463,103683.579,105631.774,
フィードバック(0.5秒),canvas.Screen,6_13_4,2023-01-15T12:12:45.115Z,,,d,,,225,349.86599999999453,timeout,d.jpg,,,106147.89999961853,106147.7999997139,105615.276,105775.69999980927,105631.774,105981.64,
トライアル,flow.Sequence,6_13,2023-01-15T12:12:45.115Z,,,d,,,225,3996.0869997138943,completion,d.jpg,,,106148,106147.7999997139,102315.5,102316.2999997139,102151.713,105981.64,
空白時間1 (0.5秒),canvas.Screen,6_14_0,2023-01-15T12:12:45.467Z,,,d,,,315,349.7639999999956,timeout,d.jpg,,,106499.7999997139,106499.39999961853,106147.7999997139,106148.09999990463,105981.64,106331.404,
注視(1秒),canvas.Screen,6_14_1,2023-01-15T12:12:46.307Z,,,d,,,315,849.2810000000027,timeout,d.jpg,,,107339.69999980927,107339.39999961853,106499.39999961853,106500.2999997139,106331.404,107180.685,
空白時間2 (0.5秒),canvas.Screen,6_14_2,2023-01-15T12:12:46.667Z,,,d,,,315,349.9470000000001,timeout,d.jpg,,,107699.5,107699.2999997139,107339.39999961853,107339.7999997139,107180.685,107530.632,
刺激提示,canvas.Screen,6_14_3,2023-01-15T12:12:47.193Z,,,d,true,d,315,694.1679997138999,response,d.jpg,d,keypress(j),108225.39999961853,108224.7999997139,107699.2999997139,107699.59999990463,107530.632,108079.645,
フィードバック(0.5秒),canvas.Screen,6_14_4,2023-01-15T12:12:47.564Z,,,d,,,315,349.80899999999383,timeout,d.jpg,,,108596.59999990463,108596.2999997139,108063.132,108227.09999990463,108079.645,108429.454,
トライアル,flow.Sequence,6_14,2023-01-15T12:12:47.564Z,,,d,,,315,2614.6599997138983,completion,d.jpg,,,108597.09999990463,108596.2999997139,106147.7999997139,106148.09999990463,105981.64,108429.454,
空白時間1 (0.5秒),canvas.Screen,6_15_0,2023-01-15T12:12:47.915Z,,,d,,,0,350.0040000000008,timeout,d.jpg,,,108947.7999997139,108947.5,108596.2999997139,108597.39999961853,108429.454,108779.458,
注視(1秒),canvas.Screen,6_15_1,2023-01-15T12:12:48.756Z,,,d,,,0,848.8249999999971,timeout,d.jpg,,,109788.19999980927,109788.09999990463,108947.5,108948,108779.458,109628.283,
空白時間2 (0.5秒),canvas.Screen,6_15_2,2023-01-15T12:12:49.116Z,,,d,,,0,349.8420000000042,timeout,d.jpg,,,110148.39999961853,110148,109788.09999990463,109788.2999997139,109628.283,109978.125,
刺激提示,canvas.Screen,6_15_3,2023-01-15T12:12:49.682Z,,,d,true,d,0,736.4749999046326,response,d.jpg,d,keypress(j),110715.19999980927,110714.59999990463,110148,110148.7999997139,109978.125,110577.473,
フィードバック(0.5秒),canvas.Screen,6_15_4,2023-01-15T12:12:50.059Z,,,d,,,0,349.78800000000047,timeout,d.jpg,,,111092.09999990463,111091.69999980927,110561.007,110727.5,110577.473,110927.261,
トライアル,flow.Sequence,6_15,2023-01-15T12:12:50.060Z,,,d,,,0,2662.2459998092672,completion,d.jpg,,,111092.39999961853,111091.69999980927,108596.2999997139,108597.2999997139,108429.454,110927.261,
タスクのセット,flow.Loop,6,2023-01-15T12:12:50.060Z,,,,,,,49887.76699980927,completion,,,,111092.69999980927,111091.69999980927,61363.89999961853,61364.2999997139,61203.933,110927.261,
空白時間1 (0.5秒),canvas.Screen,7_0_0,2023-01-15T12:12:50.410Z,,,d,,,315,349.8899999999994,timeout,d.jpg,,,111443.19999980927,111442.89999961853,111091.69999980927,111092.89999961853,110927.261,111277.151,
注視(1秒),canvas.Screen,7_0_1,2023-01-15T12:12:51.251Z,,,d,,,315,865.7140000000072,timeout,d.jpg,,,112283.39999961853,112283.09999990463,111442.89999961853,111443.39999961853,111277.151,112142.865,
空白時間2 (0.5秒),canvas.Screen,7_0_2,2023-01-15T12:12:51.628Z,,,d,,,315,349.6959999999963,timeout,d.jpg,,,112661.2999997139,112659.89999961853,112283.09999990463,112283.7999997139,112142.865,112492.561,
刺激提示,canvas.Screen,7_0_3,2023-01-15T12:12:52.676Z,,,d,true,d,315,1215.6389998092636,response,d.jpg,d,keypress(j),113708.69999980927,113708.19999980927,112659.89999961853,112661.59999990463,112492.561,113558.305,
フィードバック(0.5秒),canvas.Screen,7_0_4,2023-01-15T12:12:53.043Z,,,d,,,315,350.1170000000129,timeout,d.jpg,,,114076.09999990463,114075.69999980927,113541.584,113709.39999961853,113558.305,113908.422,
トライアル,flow.Sequence,7_0,2023-01-15T12:12:53.044Z,,,d,,,315,3148.4389998092665,completion,d.jpg,,,114076.39999961853,114075.69999980927,111091.69999980927,111092.7999997139,110927.261,113908.422,
空白時間1 (0.5秒),canvas.Screen,7_1_0,2023-01-15T12:12:53.395Z,,,d,,,0,349.68299999999,timeout,d.jpg,,,114428.09999990463,114427.89999961853,114075.69999980927,114076.69999980927,113908.422,114258.105,
注視(1秒),canvas.Screen,7_1_1,2023-01-15T12:12:54.235Z,,,d,,,0,848.9499999999971,timeout,d.jpg,,,115267.7999997139,115267.39999961853,114427.89999961853,114428.09999990463,114258.105,115107.055,
空白時間2 (0.5秒),canvas.Screen,7_1_2,2023-01-15T12:12:54.595Z,,,d,,,0,349.59100000000035,timeout,d.jpg,,,115628.19999980927,115627.7999997139,115267.39999961853,115268,115107.055,115456.646,
刺激提示,canvas.Screen,7_1_3,2023-01-15T12:12:55.582Z,,,d,true,d,0,1157.253999618537,response,d.jpg,d,keypress(j),116614.89999961853,116613.89999961853,115627.7999997139,115628.5,115456.646,116472.359,
フィードバック(0.5秒),canvas.Screen,7_1_4,2023-01-15T12:12:55.955Z,,,d,,,0,349.78600000000733,timeout,d.jpg,,,116988,116987.7999997139,116455.773,116618.69999980927,116472.359,116822.145,
トライアル,flow.Sequence,7_1,2023-01-15T12:12:55.955Z,,,d,,,0,3079.3779997138918,completion,d.jpg,,,116988.19999980927,116987.7999997139,114075.69999980927,114076.59999990463,113908.422,116822.145,
空白時間1 (0.5秒),canvas.Screen,7_2_0,2023-01-15T12:12:56.308Z,,,d,,,180,349.65499999999884,timeout,d.jpg,,,117340.7999997139,117340.19999980927,116987.7999997139,116988.2999997139,116822.145,117171.8,
注視(1秒),canvas.Screen,7_2_1,2023-01-15T12:12:57.147Z,,,d,,,180,849.3579999999929,timeout,d.jpg,,,118179.39999961853,118179,117340.19999980927,117341.19999980927,117171.8,118021.158,
空白時間2 (0.5秒),canvas.Screen,7_2_2,2023-01-15T12:12:57.508Z,,,d,,,180,349.5520000000106,timeout,d.jpg,,,118540.2999997139,118540.09999990463,118179,118179.59999990463,118021.158,118370.71,
刺激提示,canvas.Screen,7_2_3,2023-01-15T12:12:58.720Z,,,d,false,d,180,1381.3899999046262,response,d.jpg,b,keypress(f),119752.5,119752.09999990463,118540.09999990463,118540.39999961853,118370.71,119619.573,
フィードバック(0.5秒),canvas.Screen,7_2_4,2023-01-15T12:12:59.107Z,,,d,,,180,349.7639999999956,timeout,d.jpg,,,120139.7999997139,120139.5,119603.198,119771.19999980927,119619.573,119969.337,
トライアル,flow.Sequence,7_2,2023-01-15T12:12:59.107Z,,,d,,,180,3317.354999999996,completion,d.jpg,,,120140.19999980927,120139.5,116987.7999997139,116988.2999997139,116822.145,119969.337,
空白時間1 (0.5秒),canvas.Screen,7_3_0,2023-01-15T12:12:59.451Z,,,b,,,225,349.95900000000256,timeout,b.jpg,,,120483.89999961853,120483.39999961853,120139.5,120140.2999997139,119969.337,120319.296,
注視(1秒),canvas.Screen,7_3_1,2023-01-15T12:13:00.291Z,,,b,,,225,832.4569999999949,timeout,b.jpg,,,121324,121323.69999980927,120483.39999961853,120484.19999980927,120319.296,121151.753,
空白時間2 (0.5秒),canvas.Screen,7_3_2,2023-01-15T12:13:00.635Z,,,b,,,225,350.14800000000105,timeout,b.jpg,,,121667.39999961853,121667,121323.69999980927,121324.2999997139,121151.753,121501.901,
刺激提示,canvas.Screen,7_3_3,2023-01-15T12:13:02.069Z,,,b,true,b,225,1599.2989998092671,response,b.jpg,b,keypress(f),123102,123101.19999980927,121667,121667.5,121501.901,122966.677,
フィードバック(0.5秒),canvas.Screen,7_3_4,2023-01-15T12:13:02.451Z,,,b,,,225,349.875,timeout,b.jpg,,,123483.39999961853,123482.7999997139,122950.225,123117.19999980927,122966.677,123316.552,
トライアル,flow.Sequence,7_3,2023-01-15T12:13:02.451Z,,,b,,,225,3513.462999713898,completion,b.jpg,,,123483.7999997139,123482.7999997139,120139.5,120140.2999997139,119969.337,123316.552,
空白時間1 (0.5秒),canvas.Screen,7_4_0,2023-01-15T12:13:02.803Z,,,b,,,315,349.59799999999814,timeout,b.jpg,,,123836.09999990463,123834.89999961853,123482.7999997139,123484.19999980927,123316.552,123666.15,
注視(1秒),canvas.Screen,7_4_1,2023-01-15T12:13:03.643Z,,,b,,,315,849.2600000000093,timeout,b.jpg,,,124675.59999990463,124675.5,123834.89999961853,123836.39999961853,123666.15,124515.41,
空白時間2 (0.5秒),canvas.Screen,7_4_2,2023-01-15T12:13:04.002Z,,,b,,,315,349.6339999999909,timeout,b.jpg,,,125035.19999980927,125035,124675.5,124675.69999980927,124515.41,124865.044,
刺激提示,canvas.Screen,7_4_3,2023-01-15T12:13:04.844Z,,,b,true,b,315,1010.5559999046382,response,b.jpg,b,keypress(f),125876.69999980927,125875.59999990463,125035,125035.19999980927,124865.044,125730.905,
フィードバック(0.5秒),canvas.Screen,7_4_4,2023-01-15T12:13:05.218Z,,,b,,,315,349.900999999998,timeout,b.jpg,,,126251,126250.7999997139,125714.335,125878.5,125730.905,126080.806,
トライアル,flow.Sequence,7_4,2023-01-15T12:13:05.218Z,,,b,,,315,2934.2479997139017,completion,b.jpg,,,126251.19999980927,126250.7999997139,123482.7999997139,123484.09999990463,123316.552,126080.806,
空白時間1 (0.5秒),canvas.Screen,7_5_0,2023-01-15T12:13:05.563Z,,,d,,,90,349.96100000001024,timeout,d.jpg,,,126595.69999980927,126595.2999997139,126250.7999997139,126251.19999980927,126080.806,126430.767,
注視(1秒),canvas.Screen,7_5_1,2023-01-15T12:13:06.403Z,,,d,,,90,832.1970000000001,timeout,d.jpg,,,127435.69999980927,127435.39999961853,126595.2999997139,126595.89999961853,126430.767,127262.964,
空白時間2 (0.5秒),canvas.Screen,7_5_2,2023-01-15T12:13:06.739Z,,,d,,,90,350.1329999999871,timeout,d.jpg,,,127771.69999980927,127771.2999997139,127435.39999961853,127435.89999961853,127262.964,127613.097,
刺激提示,canvas.Screen,7_5_3,2023-01-15T12:13:08.123Z,,,d,true,d,90,1541.7029997139034,response,d.jpg,d,keypress(j),129155.89999961853,129154.7999997139,127771.2999997139,127772,127613.097,129028.103,
フィードバック(0.5秒),canvas.Screen,7_5_4,2023-01-15T12:13:08.515Z,,,d,,,90,349.9140000000043,timeout,d.jpg,,,129547.5,129547,129011.608,129181.5,129028.103,129378.017,
トライアル,flow.Sequence,7_5,2023-01-15T12:13:08.515Z,,,d,,,90,3466.194000000003,completion,d.jpg,,,129548,129547,126250.7999997139,126251.19999980927,126080.806,129378.017,
空白時間1 (0.5秒),canvas.Screen,7_6_0,2023-01-15T12:13:08.867Z,,,b,,,90,349.78499999998894,timeout,b.jpg,,,129899.39999961853,129899.09999990463,129547,129548.19999980927,129378.017,129727.802,
注視(1秒),canvas.Screen,7_6_1,2023-01-15T12:13:09.706Z,,,b,,,90,849.3050000000076,timeout,b.jpg,,,130739.19999980927,130738.7999997139,129899.09999990463,129899.59999990463,129727.802,130577.107,
空白時間2 (0.5秒),canvas.Screen,7_6_2,2023-01-15T12:13:10.060Z,,,b,,,90,349.6970000000001,timeout,b.jpg,,,131092.2999997139,131091.89999961853,130738.7999997139,130739.39999961853,130577.107,130926.804,
刺激提示,canvas.Screen,7_6_3,2023-01-15T12:13:11.222Z,,,b,true,b,90,1326.8959998092614,response,b.jpg,b,keypress(f),132254.89999961853,132253.69999980927,131091.89999961853,131092.5,130926.804,132108.774,
フィードバック(0.5秒),canvas.Screen,7_6_4,2023-01-15T12:13:11.595Z,,,b,,,90,349.6359999999986,timeout,b.jpg,,,132627.39999961853,132627.19999980927,132092.127,132257.2999997139,132108.774,132458.41,
トライアル,flow.Sequence,7_6,2023-01-15T12:13:11.595Z,,,b,,,90,3249.182999809258,completion,b.jpg,,,132627.5,132627.19999980927,129547,129548.19999980927,129378.017,132458.41,
空白時間1 (0.5秒),canvas.Screen,7_7_0,2023-01-15T12:13:11.939Z,,,d,,,135,350.0920000000042,timeout,d.jpg,,,132971.7999997139,132971.59999990463,132627.19999980927,132627.69999980927,132458.41,132808.502,
注視(1秒),canvas.Screen,7_7_1,2023-01-15T12:13:12.788Z,,,d,,,135,849.0869999999995,timeout,d.jpg,,,133820.5,133820.19999980927,132971.59999990463,132971.7999997139,132808.502,133657.589,
空白時間2 (0.5秒),canvas.Screen,7_7_2,2023-01-15T12:13:13.266Z,,,d,,,135,499.92799999998533,timeout,d.jpg,,,134299.19999980927,134140.342,133820.19999980927,133820.59999990463,133657.589,134157.517,
刺激提示,canvas.Screen,7_7_3,2023-01-15T12:13:14.526Z,,,d,true,d,135,1400.3829996185377,response,d.jpg,d,keypress(j),135558.39999961853,135557.89999961853,134140.342,134299.59999990463,134157.517,135422.911,
フィードバック(0.5秒),canvas.Screen,7_7_4,2023-01-15T12:13:14.907Z,,,d,,,135,349.28800000000047,timeout,d.jpg,,,135939.59999990463,135939.39999961853,135405.862,135571.09999990463,135422.911,135772.199,
トライアル,flow.Sequence,7_7,2023-01-15T12:13:14.907Z,,,d,,,135,3480.989999618527,completion,d.jpg,,,135939.7999997139,135939.39999961853,132627.19999980927,132627.69999980927,132458.41,135772.199,
空白時間1 (0.5秒),canvas.Screen,7_8_0,2023-01-15T12:13:15.258Z,,,d,,,270,349.9670000000042,timeout,d.jpg,,,136290.89999961853,136290.7999997139,135939.39999961853,135939.7999997139,135772.199,136122.166,
注視(1秒),canvas.Screen,7_8_1,2023-01-15T12:13:16.100Z,,,d,,,270,849.2589999999909,timeout,d.jpg,,,137132.5,137132.19999980927,136290.7999997139,136291,136122.166,136971.425,
空白時間2 (0.5秒),canvas.Screen,7_8_2,2023-01-15T12:13:16.460Z,,,d,,,270,349.48200000001816,timeout,d.jpg,,,137492.5,137492.19999980927,137132.19999980927,137132.7999997139,136971.425,137320.907,
刺激提示,canvas.Screen,7_8_3,2023-01-15T12:13:17.396Z,,,d,true,d,270,1106.8929997138912,response,d.jpg,d,keypress(j),138428.7999997139,138427.7999997139,137492.19999980927,137492.7999997139,137320.907,138286.707,
フィードバック(0.5秒),canvas.Screen,7_8_4,2023-01-15T12:13:17.896Z,,,d,,,270,499.49600000001374,timeout,d.jpg,,,138928.59999990463,138769.937,138270.08,138431.39999961853,138286.707,138786.203,
トライアル,flow.Sequence,7_8,2023-01-15T12:13:17.896Z,,,d,,,270,2997.738000000012,completion,d.jpg,,,138929,138769.937,135939.39999961853,135939.7999997139,135772.199,138786.203,
空白時間1 (0.5秒),canvas.Screen,7_9_0,2023-01-15T12:13:18.275Z,,,b,,,270,349.73299999997835,timeout,b.jpg,,,139307,139306.89999961853,138769.937,138929.09999990463,138786.203,139135.936,
注視(1秒),canvas.Screen,7_9_1,2023-01-15T12:13:19.115Z,,,b,,,270,849.2920000000158,timeout,b.jpg,,,140147.2999997139,140147.09999990463,139306.89999961853,139307.19999980927,139135.936,139985.228,
空白時間2 (0.5秒),canvas.Screen,7_9_2,2023-01-15T12:13:19.469Z,,,b,,,270,349.7129999999888,timeout,b.jpg,,,140501,140500.59999990463,140147.09999990463,140147.39999961853,139985.228,140334.941,
刺激提示,canvas.Screen,7_9_3,2023-01-15T12:13:20.588Z,,,b,true,b,270,1284.5590000000084,response,b.jpg,b,keypress(f),141620.69999980927,141619.5,140500.59999990463,140501.2999997139,140334.941,141501.003,
フィードバック(0.5秒),canvas.Screen,7_9_4,2023-01-15T12:13:20.987Z,,,b,,,270,349.7280000000028,timeout,b.jpg,,,142019.7999997139,142019.5,141484.32,141643.2999997139,141501.003,141850.731,
トライアル,flow.Sequence,7_9,2023-01-15T12:13:20.988Z,,,b,,,270,3233.2969999999914,completion,b.jpg,,,142020.19999980927,142019.5,138769.937,138929.09999990463,138786.203,141850.731,
空白時間1 (0.5秒),canvas.Screen,7_10_0,2023-01-15T12:13:21.340Z,,,b,,,135,349.3869999999879,timeout,b.jpg,,,142372.09999990463,142371.89999961853,142019.5,142020.39999961853,141850.731,142200.118,
注視(1秒),canvas.Screen,7_10_1,2023-01-15T12:13:22.179Z,,,b,,,135,849.1929999999993,timeout,b.jpg,,,143211.59999990463,143211.39999961853,142371.89999961853,142372.09999990463,142200.118,143049.311,
空白時間2 (0.5秒),canvas.Screen,7_10_2,2023-01-15T12:13:22.531Z,,,b,,,135,349.62900000001537,timeout,b.jpg,,,143563.39999961853,143562.89999961853,143211.39999961853,143211.7999997139,143049.311,143398.94,
刺激提示,canvas.Screen,7_10_3,2023-01-15T12:13:23.988Z,,,b,true,b,135,1620.459999618528,response,b.jpg,b,keypress(f),145020.59999990463,145019.39999961853,143562.89999961853,143563.89999961853,143398.94,144897.578,
フィードバック(0.5秒),canvas.Screen,7_10_4,2023-01-15T12:13:24.380Z,,,b,,,135,349.75500000000466,timeout,b.jpg,,,145412.5,145412,144881.287,145041.19999980927,144897.578,145247.333,
トライアル,flow.Sequence,7_10,2023-01-15T12:13:24.380Z,,,b,,,135,3561.2690000000002,completion,b.jpg,,,145412.89999961853,145412,142019.5,142020.2999997139,141850.731,145247.333,
空白時間1 (0.5秒),canvas.Screen,7_11_0,2023-01-15T12:13:24.731Z,,,b,,,180,350.112999999983,timeout,b.jpg,,,145763.69999980927,145763.59999990463,145412,145413.19999980927,145247.333,145597.446,
注視(1秒),canvas.Screen,7_11_1,2023-01-15T12:13:25.572Z,,,b,,,180,848.9260000000068,timeout,b.jpg,,,146604,146603.59999990463,145763.59999990463,145763.89999961853,145597.446,146446.372,
空白時間2 (0.5秒),canvas.Screen,7_11_2,2023-01-15T12:13:25.931Z,,,b,,,180,349.81099999998696,timeout,b.jpg,,,146963.89999961853,146963.59999990463,146603.59999990463,146604.19999980927,146446.372,146796.183,
刺激提示,canvas.Screen,7_11_3,2023-01-15T12:13:28.391Z,,,b,false,b,180,2626.6169997139077,response,b.jpg,d,keypress(j),149423.2999997139,149422.7999997139,146963.59999990463,146964.19999980927,146796.183,149294.975,
フィードバック(0.5秒),canvas.Screen,7_11_4,2023-01-15T12:13:28.781Z,,,b,,,180,348.5119999999879,timeout,b.jpg,,,149813.09999990463,149812.59999990463,149260.772,149434.39999961853,149294.975,149643.487,
トライアル,flow.Sequence,7_11,2023-01-15T12:13:28.781Z,,,b,,,180,4565.266999904619,completion,b.jpg,,,149813.5,149812.59999990463,145412,145413.09999990463,145247.333,149643.487,
空白時間1 (0.5秒),canvas.Screen,7_12_0,2023-01-15T12:13:29.132Z,,,b,,,45,349.65300000002026,timeout,b.jpg,,,150164.09999990463,150164,149812.59999990463,149813.7999997139,149643.487,149993.14,
注視(1秒),canvas.Screen,7_12_1,2023-01-15T12:13:29.971Z,,,b,,,45,849.3069999999716,timeout,b.jpg,,,151003.09999990463,151002.89999961853,150164,150164.19999980927,149993.14,150842.447,
空白時間2 (0.5秒),canvas.Screen,7_12_2,2023-01-15T12:13:30.331Z,,,b,,,45,349.6790000000037,timeout,b.jpg,,,151363.59999990463,151363.39999961853,151002.89999961853,151003.19999980927,150842.447,151192.126,
刺激提示,canvas.Screen,7_12_3,2023-01-15T12:13:31.233Z,,,b,true,b,45,1073.1739997139084,response,b.jpg,b,keypress(f),152265.7999997139,152265.2999997139,151363.39999961853,151364,151192.126,152124.595,
フィードバック(0.5秒),canvas.Screen,7_12_4,2023-01-15T12:13:31.611Z,,,b,,,45,349.6380000000063,timeout,b.jpg,,,152643.39999961853,152643.19999980927,152108.276,152266.5,152124.595,152474.233,
トライアル,flow.Sequence,7_12,2023-01-15T12:13:31.611Z,,,b,,,45,2999.7129998092714,completion,b.jpg,,,152643.5,152643.19999980927,149812.59999990463,149813.59999990463,149643.487,152474.233,
空白時間1 (0.5秒),canvas.Screen,7_13_0,2023-01-15T12:13:31.964Z,,,b,,,0,349.7829999999958,timeout,b.jpg,,,152996.59999990463,152996.2999997139,152643.19999980927,152643.59999990463,152474.233,152824.016,
注視(1秒),canvas.Screen,7_13_1,2023-01-15T12:13:32.803Z,,,b,,,0,849.1999999999825,timeout,b.jpg,,,153835.2999997139,153835.09999990463,152996.2999997139,152996.69999980927,152824.016,153673.216,
空白時間2 (0.5秒),canvas.Screen,7_13_2,2023-01-15T12:13:33.171Z,,,b,,,0,366.445000000007,timeout,b.jpg,,,154203.5,154188.2999997139,153835.09999990463,153835.39999961853,153673.216,154039.661,
刺激提示,canvas.Screen,7_13_3,2023-01-15T12:13:33.883Z,,,b,true,b,0,875.6389997139049,response,b.jpg,b,keypress(f),154915.69999980927,154915.2999997139,154188.2999997139,154203.69999980927,154039.661,154772.257,
フィードバック(0.5秒),canvas.Screen,7_13_4,2023-01-15T12:13:34.259Z,,,b,,,0,349.8389999999781,timeout,b.jpg,,,155291.39999961853,155291,154755.639,154923.89999961853,154772.257,155122.096,
トライアル,flow.Sequence,7_13,2023-01-15T12:13:34.259Z,,,b,,,0,2816.7669999999925,completion,b.jpg,,,155292,155291,152643.19999980927,152643.59999990463,152474.233,155122.096,
空白時間1 (0.5秒),canvas.Screen,7_14_0,2023-01-15T12:13:34.611Z,,,d,,,225,349.61999999999534,timeout,d.jpg,,,155643.89999961853,155643.59999990463,155291,155292.19999980927,155122.096,155471.716,
注視(1秒),canvas.Screen,7_14_1,2023-01-15T12:13:35.451Z,,,d,,,225,849.2630000000063,timeout,d.jpg,,,156483.59999990463,156483.19999980927,155643.59999990463,155644,155471.716,156320.979,
空白時間2 (0.5秒),canvas.Screen,7_14_2,2023-01-15T12:13:35.803Z,,,d,,,225,350.0540000000037,timeout,d.jpg,,,156835.5,156835.19999980927,156483.19999980927,156483.89999961853,156320.979,156671.033,
刺激提示,canvas.Screen,7_14_3,2023-01-15T12:13:37.244Z,,,d,true,d,225,1604.5669999046368,response,d.jpg,d,keypress(j),158276.09999990463,158275.59999990463,156835.19999980927,156835.7999997139,156671.033,158136.96,
フィードバック(0.5秒),canvas.Screen,7_14_4,2023-01-15T12:13:37.619Z,,,d,,,225,348.9320000000007,timeout,d.jpg,,,158651.59999990463,158651.39999961853,158102.739,158276.7999997139,158136.96,158485.892,
トライアル,flow.Sequence,7_14,2023-01-15T12:13:37.619Z,,,d,,,225,3529.30399961854,completion,d.jpg,,,158651.89999961853,158651.39999961853,155291,155292.09999990463,155122.096,158485.892,
空白時間1 (0.5秒),canvas.Screen,7_15_0,2023-01-15T12:13:37.971Z,,,d,,,45,349.7930000000051,timeout,d.jpg,,,159003.09999990463,159002.89999961853,158651.39999961853,158652,158485.892,158835.685,
注視(1秒),canvas.Screen,7_15_1,2023-01-15T12:13:38.812Z,,,d,,,45,849.19200000001,timeout,d.jpg,,,159844.39999961853,159844.09999990463,159002.89999961853,159003.2999997139,158835.685,159684.877,
空白時間2 (0.5秒),canvas.Screen,7_15_2,2023-01-15T12:13:39.172Z,,,d,,,45,349.6909999999916,timeout,d.jpg,,,160204.09999990463,160204,159844.09999990463,159844.69999980927,159684.877,160034.568,
刺激提示,canvas.Screen,7_15_3,2023-01-15T12:13:40.231Z,,,d,true,d,45,1228.6319998092658,response,d.jpg,d,keypress(j),161263.69999980927,161263.19999980927,160204,160204.19999980927,160034.568,161116.701,
フィードバック(0.5秒),canvas.Screen,7_15_4,2023-01-15T12:13:40.603Z,,,d,,,45,349.9010000000126,timeout,d.jpg,,,161636,161635.5,161100.409,161271.69999980927,161116.701,161466.602,
トライアル,flow.Sequence,7_15,2023-01-15T12:13:40.604Z,,,d,,,45,3149.6080000000075,completion,d.jpg,,,161636.39999961853,161635.5,158651.39999961853,158651.89999961853,158485.892,161466.602,
タスクのセット,flow.Loop,7,2023-01-15T12:13:40.604Z,,,,,,,50708.239,completion,,,,161636.59999990463,161635.5,111091.69999980927,111092.7999997139,110927.261,161466.602,
空白時間1 (0.5秒),canvas.Screen,8_0_0,2023-01-15T12:13:40.956Z,,,b,,,45,349.86799999998766,timeout,b.jpg,,,161988.19999980927,161988,161635.5,161636.89999961853,161466.602,161816.47,
注視(1秒),canvas.Screen,8_0_1,2023-01-15T12:13:41.795Z,,,b,,,45,848.9560000000056,timeout,b.jpg,,,162827.59999990463,162827.2999997139,161988,161988.2999997139,161816.47,162665.426,
空白時間2 (0.5秒),canvas.Screen,8_0_2,2023-01-15T12:13:42.274Z,,,b,,,45,499.5810000000056,timeout,b.jpg,,,163306.7999997139,163148.347,162827.2999997139,162827.69999980927,162665.426,163165.007,
刺激提示,canvas.Screen,8_0_3,2023-01-15T12:13:43.054Z,,,b,true,b,45,920.3929996185179,response,b.jpg,b,keypress(f),164086.19999980927,164085.39999961853,163148.347,163306.89999961853,163165.007,163947.588,
フィードバック(0.5秒),canvas.Screen,8_0_4,2023-01-15T12:13:43.435Z,,,b,,,45,350.0810000000056,timeout,b.jpg,,,164467.7999997139,164467.39999961853,163931.087,164090.5,163947.588,164297.669,
トライアル,flow.Sequence,8_0,2023-01-15T12:13:43.436Z,,,b,,,45,3000.7979996185168,completion,b.jpg,,,164468.2999997139,164467.39999961853,161635.5,161636.89999961853,161466.602,164297.669,
空白時間1 (0.5秒),canvas.Screen,8_1_0,2023-01-15T12:13:43.779Z,,,d,,,270,349.625,timeout,d.jpg,,,164811.5,164811.09999990463,164467.39999961853,164468.59999990463,164297.669,164647.294,
注視(1秒),canvas.Screen,8_1_1,2023-01-15T12:13:44.628Z,,,d,,,270,849.2639999999956,timeout,d.jpg,,,165660.5,165660.19999980927,164811.09999990463,164811.89999961853,164647.294,165496.558,
空白時間2 (0.5秒),canvas.Screen,8_1_2,2023-01-15T12:13:44.980Z,,,d,,,270,349.46199999999953,timeout,d.jpg,,,166012.2999997139,166011.89999961853,165660.19999980927,165660.69999980927,165496.558,165846.02,
刺激提示,canvas.Screen,8_1_3,2023-01-15T12:13:46.382Z,,,d,true,d,270,1552.079999904643,response,d.jpg,d,keypress(j),167414.09999990463,167398.09999990463,166011.89999961853,166012.59999990463,165846.02,167278.034,
フィードバック(0.5秒),canvas.Screen,8_1_4,2023-01-15T12:13:46.763Z,,,d,,,270,349.9569999999949,timeout,d.jpg,,,167795.19999980927,167794.7999997139,167261.515,167422.39999961853,167278.034,167627.991,
トライアル,flow.Sequence,8_1,2023-01-15T12:13:46.763Z,,,d,,,270,3497.1309997139033,completion,d.jpg,,,167795.59999990463,167794.7999997139,164467.39999961853,164468.59999990463,164297.669,167627.991,
空白時間1 (0.5秒),canvas.Screen,8_2_0,2023-01-15T12:13:47.116Z,,,d,,,315,349.6820000000007,timeout,d.jpg,,,168148.5,168148.19999980927,167794.7999997139,167795.89999961853,167627.991,167977.673,
注視(1秒),canvas.Screen,8_2_1,2023-01-15T12:13:47.955Z,,,d,,,315,849.0859999999811,timeout,d.jpg,,,168988,168987.69999980927,168148.19999980927,168148.69999980927,167977.673,168826.759,
空白時間2 (0.5秒),canvas.Screen,8_2_2,2023-01-15T12:13:48.316Z,,,d,,,315,349.877999999997,timeout,d.jpg,,,169348.39999961853,169348.09999990463,168987.69999980927,168988.19999980927,168826.759,169176.637,
刺激提示,canvas.Screen,8_2_3,2023-01-15T12:13:48.852Z,,,d,true,d,315,707.4629999046447,response,d.jpg,d,keypress(j),169884.59999990463,169884.09999990463,169348.09999990463,169348.7999997139,169176.637,169742.575,
フィードバック(0.5秒),canvas.Screen,8_2_4,2023-01-15T12:13:49.227Z,,,d,,,315,349.7139999999781,timeout,d.jpg,,,170259.5,170259.09999990463,169725.898,169885.39999961853,169742.575,170092.289,
トライアル,flow.Sequence,8_2,2023-01-15T12:13:49.227Z,,,d,,,315,2631.1089999046235,completion,d.jpg,,,170259.89999961853,170259.09999990463,167794.7999997139,167795.89999961853,167627.991,170092.289,
空白時間1 (0.5秒),canvas.Screen,8_3_0,2023-01-15T12:13:49.580Z,,,b,,,90,349.7400000000198,timeout,b.jpg,,,170612.19999980927,170612.09999990463,170259.09999990463,170260.09999990463,170092.289,170442.029,
注視(1秒),canvas.Screen,8_3_1,2023-01-15T12:13:50.420Z,,,b,,,90,849.2299999999814,timeout,b.jpg,,,171452.5,171452.19999980927,170612.09999990463,170612.39999961853,170442.029,171291.259,
空白時間2 (0.5秒),canvas.Screen,8_3_2,2023-01-15T12:13:50.900Z,,,b,,,90,499.89300000001094,timeout,b.jpg,,,171932.7999997139,171774.417,171452.19999980927,171452.7999997139,171291.259,171791.152,
刺激提示,canvas.Screen,8_3_3,2023-01-15T12:13:51.891Z,,,b,true,b,90,1131.2479996185284,response,b.jpg,b,keypress(f),172923.59999990463,172922.39999961853,171774.417,171932.89999961853,171791.152,172789.863,
フィードバック(0.5秒),canvas.Screen,8_3_4,2023-01-15T12:13:52.276Z,,,b,,,90,349.77899999998044,timeout,b.jpg,,,173308.59999990463,173308.2999997139,172773.493,172946.19999980927,172789.863,173139.642,
トライアル,flow.Sequence,8_3,2023-01-15T12:13:52.277Z,,,b,,,90,3216.010999713908,completion,b.jpg,,,173309.09999990463,173308.2999997139,170259.09999990463,170260,170092.289,173139.642,
空白時間1 (0.5秒),canvas.Screen,8_4_0,2023-01-15T12:13:52.627Z,,,d,,,180,350.0810000000056,timeout,d.jpg,,,173659.89999961853,173659.69999980927,173308.2999997139,173309.39999961853,173139.642,173489.723,
注視(1秒),canvas.Screen,8_4_1,2023-01-15T12:13:53.467Z,,,d,,,180,848.814000000013,timeout,d.jpg,,,174499.7999997139,174499.69999980927,173659.69999980927,173660,173489.723,174338.537,
空白時間2 (0.5秒),canvas.Screen,8_4_2,2023-01-15T12:13:53.948Z,,,d,,,180,499.5359999999928,timeout,d.jpg,,,174980.19999980927,174821.598,174499.69999980927,174499.89999961853,174338.537,174838.073,
刺激提示,canvas.Screen,8_4_3,2023-01-15T12:13:57.464Z,,,d,true,d,180,3656.926999999996,response,d.jpg,d,keypress(j),178496.19999980927,178495,174821.598,174980.5,174838.073,178368.493,
フィードバック(0.5秒),canvas.Screen,8_4_4,2023-01-15T12:13:57.852Z,,,d,,,180,349.63200000001234,timeout,d.jpg,,,178884.5,178884.09999990463,178352.19,178519.2999997139,178368.493,178718.125,
トライアル,flow.Sequence,8_4,2023-01-15T12:13:57.852Z,,,d,,,180,5744.45799990464,completion,d.jpg,,,178885,178884.09999990463,173308.2999997139,173309.2999997139,173139.642,178718.125,
空白時間1 (0.5秒),canvas.Screen,8_5_0,2023-01-15T12:13:58.203Z,,,b,,,135,349.70900000000256,timeout,b.jpg,,,179235.7999997139,179235.69999980927,178884.09999990463,178885.19999980927,178718.125,179067.834,
注視(1秒),canvas.Screen,8_5_1,2023-01-15T12:13:59.043Z,,,b,,,135,849.4139999999898,timeout,b.jpg,,,180076,180075.59999990463,179235.69999980927,179236.09999990463,179067.834,179917.248,
空白時間2 (0.5秒),canvas.Screen,8_5_2,2023-01-15T12:13:59.403Z,,,b,,,135,349.8270000000193,timeout,b.jpg,,,180435.69999980927,180435.2999997139,180075.59999990463,180076.19999980927,179917.248,180267.075,
刺激提示,canvas.Screen,8_5_3,2023-01-15T12:14:00.364Z,,,b,true,b,135,1129.024999904621,response,b.jpg,b,keypress(f),181396.89999961853,181396.09999990463,180435.2999997139,180436,180267.075,181266.036,
フィードバック(0.5秒),canvas.Screen,8_5_4,2023-01-15T12:14:00.748Z,,,b,,,135,349.5709999999963,timeout,b.jpg,,,181780,181779.7999997139,181249.189,181410.89999961853,181266.036,181615.607,
トライアル,flow.Sequence,8_5,2023-01-15T12:14:00.748Z,,,b,,,135,3061.6749997138977,completion,b.jpg,,,181780.09999990463,181779.7999997139,178884.09999990463,178885.09999990463,178718.125,181615.607,
空白時間1 (0.5秒),canvas.Screen,8_6_0,2023-01-15T12:14:01.100Z,,,d,,,225,349.6830000000191,timeout,d.jpg,,,182132.5,182132.19999980927,181779.7999997139,181780.19999980927,181615.607,181965.29,
注視(1秒),canvas.Screen,8_6_1,2023-01-15T12:14:01.940Z,,,d,,,225,849.3579999999783,timeout,d.jpg,,,182972.09999990463,182971.89999961853,182132.19999980927,182132.7999997139,181965.29,182814.648,
空白時間2 (0.5秒),canvas.Screen,8_6_2,2023-01-15T12:14:02.423Z,,,d,,,225,499.73400000002584,timeout,d.jpg,,,183455.7999997139,183297.499,182971.89999961853,182972.2999997139,182814.648,183314.382,
刺激提示,canvas.Screen,8_6_3,2023-01-15T12:14:04.988Z,,,d,true,d,225,2705.817999809253,response,d.jpg,d,keypress(j),186020.69999980927,186020.19999980927,183297.499,183455.89999961853,183314.382,185878.425,
フィードバック(0.5秒),canvas.Screen,8_6_4,2023-01-15T12:14:05.363Z,,,d,,,225,349.99500000002445,timeout,d.jpg,,,186395.89999961853,186395.5,185862.062,186028.7999997139,185878.425,186228.42,
トライアル,flow.Sequence,8_6,2023-01-15T12:14:05.364Z,,,d,,,225,4779.893000000011,completion,d.jpg,,,186396.2999997139,186395.5,181779.7999997139,181780.19999980927,181615.607,186228.42,
空白時間1 (0.5秒),canvas.Screen,8_7_0,2023-01-15T12:14:05.715Z,,,b,,,270,349.63300000000163,timeout,b.jpg,,,186747.69999980927,186747.39999961853,186395.5,186396.59999990463,186228.42,186578.053,
注視(1秒),canvas.Screen,8_7_1,2023-01-15T12:14:06.556Z,,,b,,,270,849.1289999999863,timeout,b.jpg,,,187588.2999997139,187588.09999990463,186747.39999961853,186748,186578.053,187427.182,
空白時間2 (0.5秒),canvas.Screen,8_7_2,2023-01-15T12:14:07.036Z,,,b,,,270,499.5309999999881,timeout,b.jpg,,,188068.59999990463,187910.213,187588.09999990463,187588.59999990463,187427.182,187926.713,
刺激提示,canvas.Screen,8_7_3,2023-01-15T12:14:07.951Z,,,b,true,b,270,1056.6869996185414,response,b.jpg,b,keypress(f),188984,188983.39999961853,187910.213,188068.69999980927,187926.713,188842.557,
フィードバック(0.5秒),canvas.Screen,8_7_4,2023-01-15T12:14:08.331Z,,,b,,,270,349.7639999999956,timeout,b.jpg,,,189363.19999980927,189362.89999961853,188826.037,188992.39999961853,188842.557,189192.321,
トライアル,flow.Sequence,8_7,2023-01-15T12:14:08.331Z,,,b,,,270,3134.4799996185175,completion,b.jpg,,,189363.59999990463,189362.89999961853,186395.5,186396.5,186228.42,189192.321,
空白時間1 (0.5秒),canvas.Screen,8_8_0,2023-01-15T12:14:08.674Z,,,b,,,225,349.7190000000119,timeout,b.jpg,,,189707,189706.7999997139,189362.89999961853,189364,189192.321,189542.04,
注視(1秒),canvas.Screen,8_8_1,2023-01-15T12:14:09.515Z,,,b,,,225,832.5119999999879,timeout,b.jpg,,,190547.09999990463,190546.89999961853,189706.7999997139,189707.09999990463,189542.04,190374.552,
空白時間2 (0.5秒),canvas.Screen,8_8_2,2023-01-15T12:14:09.852Z,,,b,,,225,349.76699999999255,timeout,b.jpg,,,190884.59999990463,190884.19999980927,190546.89999961853,190547.2999997139,190374.552,190724.319,
刺激提示,canvas.Screen,8_8_3,2023-01-15T12:14:12.805Z,,,b,true,b,225,3112.5809996185417,response,b.jpg,b,keypress(f),193837.89999961853,193836.89999961853,190884.19999980927,190884.89999961853,190724.319,193705.403,
フィードバック(0.5秒),canvas.Screen,8_8_4,2023-01-15T12:14:13.188Z,,,b,,,225,349.33300000001327,timeout,b.jpg,,,194220,194219.59999990463,193688.433,193852.2999997139,193705.403,194054.736,
トライアル,flow.Sequence,8_8,2023-01-15T12:14:13.188Z,,,b,,,225,5027.278999904636,completion,b.jpg,,,194220.39999961853,194219.59999990463,189362.89999961853,189363.89999961853,189192.321,194054.736,
空白時間1 (0.5秒),canvas.Screen,8_9_0,2023-01-15T12:14:13.540Z,,,d,,,135,349.695000000007,timeout,d.jpg,,,194572,194571.69999980927,194219.59999990463,194220.69999980927,194054.736,194404.431,
注視(1秒),canvas.Screen,8_9_1,2023-01-15T12:14:14.379Z,,,d,,,135,849.2669999999925,timeout,d.jpg,,,195411.7999997139,195411.39999961853,194571.69999980927,194572.09999990463,194404.431,195253.698,
空白時間2 (0.5秒),canvas.Screen,8_9_2,2023-01-15T12:14:14.740Z,,,d,,,135,349.6589999999851,timeout,d.jpg,,,195771.89999961853,195771.69999980927,195411.39999961853,195412.09999990463,195253.698,195603.357,
刺激提示,canvas.Screen,8_9_3,2023-01-15T12:14:16.766Z,,,d,true,d,135,2194.842999809276,response,d.jpg,d,keypress(j),197798.69999980927,197798.19999980927,195771.69999980927,195772,195603.357,197651.509,
フィードバック(0.5秒),canvas.Screen,8_9_4,2023-01-15T12:14:17.139Z,,,d,,,135,349.7270000000135,timeout,d.jpg,,,198171.69999980927,198171.59999990463,197634.889,197807.69999980927,197651.509,198001.236,
トライアル,flow.Sequence,8_9,2023-01-15T12:14:17.140Z,,,d,,,135,4116.863999904628,completion,d.jpg,,,198171.89999961853,198171.59999990463,194219.59999990463,194220.69999980927,194054.736,198001.236,
空白時間1 (0.5秒),canvas.Screen,8_10_0,2023-01-15T12:14:17.483Z,,,b,,,315,349.70999999999185,timeout,b.jpg,,,198515.09999990463,198515,198171.59999990463,198171.89999961853,198001.236,198350.946,
注視(1秒),canvas.Screen,8_10_1,2023-01-15T12:14:18.331Z,,,b,,,315,849.2339999999967,timeout,b.jpg,,,199363.2999997139,199363.19999980927,198515,198515.19999980927,198350.946,199200.18,
空白時間2 (0.5秒),canvas.Screen,8_10_2,2023-01-15T12:14:18.691Z,,,b,,,315,350.04200000001583,timeout,b.jpg,,,199723.69999980927,199723.5,199363.19999980927,199363.39999961853,199200.18,199550.222,
刺激提示,canvas.Screen,8_10_3,2023-01-15T12:14:19.819Z,,,b,true,b,315,1299.8779999046237,response,b.jpg,b,keypress(f),200851,200850.09999990463,199723.5,199723.7999997139,199550.222,200698.9,
フィードバック(0.5秒),canvas.Screen,8_10_4,2023-01-15T12:14:20.187Z,,,b,,,315,349.7140000000072,timeout,b.jpg,,,201219,201218.7999997139,200682.273,200855.09999990463,200698.9,201048.614,
トライアル,flow.Sequence,8_10,2023-01-15T12:14:20.187Z,,,b,,,315,3217.5639997138933,completion,b.jpg,,,201219.09999990463,201218.7999997139,198171.59999990463,198171.89999961853,198001.236,201048.614,
空白時間1 (0.5秒),canvas.Screen,8_11_0,2023-01-15T12:14:20.531Z,,,b,,,180,349.82500000001164,timeout,b.jpg,,,201563.7999997139,201563.39999961853,201218.7999997139,201219.19999980927,201048.614,201398.439,
注視(1秒),canvas.Screen,8_11_1,2023-01-15T12:14:21.371Z,,,b,,,180,832.4789999999921,timeout,b.jpg,,,202403.19999980927,202403.09999990463,201563.39999961853,201564,201398.439,202230.918,
空白時間2 (0.5秒),canvas.Screen,8_11_2,2023-01-15T12:14:21.716Z,,,b,,,180,349.9679999999935,timeout,b.jpg,,,202747.89999961853,202747.5,202403.09999990463,202403.39999961853,202230.918,202580.886,
刺激提示,canvas.Screen,8_11_3,2023-01-15T12:14:24.715Z,,,b,true,b,180,3166.213999904634,response,b.jpg,b,keypress(f),205747.69999980927,205747.09999990463,202747.5,202748,202580.886,205611.681,
フィードバック(0.5秒),canvas.Screen,8_11_4,2023-01-15T12:14:25.099Z,,,b,,,180,349.4629999999888,timeout,b.jpg,,,206131,206130.89999961853,205595.175,205759.89999961853,205611.681,205961.144,
トライアル,flow.Sequence,8_11,2023-01-15T12:14:25.099Z,,,b,,,180,5082.285999618529,completion,b.jpg,,,206131.19999980927,206130.89999961853,201218.7999997139,201219.19999980927,201048.614,205961.144,
空白時間1 (0.5秒),canvas.Screen,8_12_0,2023-01-15T12:14:25.443Z,,,b,,,0,350.0309999999881,timeout,b.jpg,,,206475.7999997139,206475.39999961853,206130.89999961853,206131.2999997139,205961.144,206311.175,
注視(1秒),canvas.Screen,8_12_1,2023-01-15T12:14:26.292Z,,,b,,,0,848.756000000023,timeout,b.jpg,,,207324.2999997139,207323.89999961853,206475.39999961853,206476,206311.175,207159.931,
空白時間2 (0.5秒),canvas.Screen,8_12_2,2023-01-15T12:14:26.645Z,,,b,,,0,349.87899999998626,timeout,b.jpg,,,207677.2999997139,207676.39999961853,207323.89999961853,207324.5,207159.931,207509.81,
刺激提示,canvas.Screen,8_12_3,2023-01-15T12:14:28.815Z,,,b,true,b,0,2337.0899996185326,response,b.jpg,b,keypress(f),209847.39999961853,209846.89999961853,207676.39999961853,207677.59999990463,207509.81,209707.678,
フィードバック(0.5秒),canvas.Screen,8_12_4,2023-01-15T12:14:29.195Z,,,b,,,0,349.75499999997555,timeout,b.jpg,,,210227.39999961853,210227.19999980927,209691.048,209859,209707.678,210057.433,
トライアル,flow.Sequence,8_12,2023-01-15T12:14:29.195Z,,,b,,,0,4266.055999809265,completion,b.jpg,,,210227.59999990463,210227.19999980927,206130.89999961853,206131.2999997139,205961.144,210057.433,
空白時間1 (0.5秒),canvas.Screen,8_13_0,2023-01-15T12:14:29.539Z,,,d,,,90,349.8980000000156,timeout,d.jpg,,,210571.69999980927,210571.39999961853,210227.19999980927,210227.7999997139,210057.433,210407.331,
注視(1秒),canvas.Screen,8_13_1,2023-01-15T12:14:30.388Z,,,d,,,90,849.1460000000079,timeout,d.jpg,,,211419.7999997139,211419.69999980927,210571.39999961853,210572,210407.331,211256.477,
空白時間2 (0.5秒),canvas.Screen,8_13_2,2023-01-15T12:14:30.866Z,,,d,,,90,499.8299999999872,timeout,d.jpg,,,211898.09999990463,211739.607,211419.69999980927,211420,211256.477,211756.307,
刺激提示,canvas.Screen,8_13_3,2023-01-15T12:14:32.807Z,,,d,true,d,90,2082.0929996185296,response,d.jpg,d,keypress(j),213838.7999997139,213838.39999961853,211739.607,211898.19999980927,211756.307,213704.209,
フィードバック(0.5秒),canvas.Screen,8_13_4,2023-01-15T12:14:33.187Z,,,d,,,90,349.77799999999115,timeout,d.jpg,,,214219.69999980927,214219.19999980927,213688.029,213847.2999997139,213704.209,214053.987,
トライアル,flow.Sequence,8_13,2023-01-15T12:14:33.188Z,,,d,,,90,4161.766999809275,completion,d.jpg,,,214220.19999980927,214219.19999980927,210227.19999980927,210227.69999980927,210057.433,214053.987,
空白時間1 (0.5秒),canvas.Screen,8_14_0,2023-01-15T12:14:33.540Z,,,d,,,0,349.6689999999944,timeout,d.jpg,,,214572.39999961853,214571.89999961853,214219.19999980927,214220.5,214053.987,214403.656,
注視(1秒),canvas.Screen,8_14_1,2023-01-15T12:14:34.379Z,,,d,,,0,849.4790000000212,timeout,d.jpg,,,215411.09999990463,215411,214571.89999961853,214572.59999990463,214403.656,215253.135,
空白時間2 (0.5秒),canvas.Screen,8_14_2,2023-01-15T12:14:34.739Z,,,d,,,0,349.53999999997905,timeout,d.jpg,,,215771.39999961853,215771.09999990463,215411,215411.19999980927,215253.135,215602.675,
刺激提示,canvas.Screen,8_14_3,2023-01-15T12:14:35.720Z,,,d,true,d,0,1149.5249998092768,response,d.jpg,d,keypress(j),216752.69999980927,216752.19999980927,215771.09999990463,215771.69999980927,215602.675,216601.676,
フィードバック(0.5秒),canvas.Screen,8_14_4,2023-01-15T12:14:36.084Z,,,d,,,0,349.7820000000065,timeout,d.jpg,,,217116.69999980927,217116.39999961853,216585.293,216753.7999997139,216601.676,216951.458,
トライアル,flow.Sequence,8_14,2023-01-15T12:14:36.085Z,,,d,,,0,3062.4129996185366,completion,d.jpg,,,217116.89999961853,217116.39999961853,214219.19999980927,214220.39999961853,214053.987,216951.458,
空白時間1 (0.5秒),canvas.Screen,8_15_0,2023-01-15T12:14:36.435Z,,,d,,,45,349.63199999998324,timeout,d.jpg,,,217466.89999961853,217466.7999997139,217116.39999961853,217117,216951.458,217301.09,
注視(1秒),canvas.Screen,8_15_1,2023-01-15T12:14:37.276Z,,,d,,,45,849.304999999993,timeout,d.jpg,,,218308.5,218308.19999980927,217466.7999997139,217467,217301.09,218150.395,
空白時間2 (0.5秒),canvas.Screen,8_15_2,2023-01-15T12:14:37.636Z,,,d,,,45,349.68600000001607,timeout,d.jpg,,,218668.2999997139,218668,218308.19999980927,218308.7999997139,218150.395,218500.081,
刺激提示,canvas.Screen,8_15_3,2023-01-15T12:14:38.394Z,,,d,true,d,45,924.3189996185247,response,d.jpg,d,keypress(j),219426,219424.39999961853,218668,218668.59999990463,218500.081,219299.798,
フィードバック(0.5秒),canvas.Screen,8_15_4,2023-01-15T12:14:38.788Z,,,d,,,45,349.5229999999865,timeout,d.jpg,,,219820.5,219820.09999990463,219266.062,219439.59999990463,219299.798,219649.321,
トライアル,flow.Sequence,8_15,2023-01-15T12:14:38.789Z,,,d,,,45,2868.6419999046193,completion,d.jpg,,,219820.7999997139,219820.09999990463,217116.39999961853,217117,216951.458,219649.321,
タスクのセット,flow.Loop,8,2023-01-15T12:14:38.789Z,,,,,,,58353.49799990462,completion,,,,219821.19999980927,219820.09999990463,161635.5,161636.7999997139,161466.602,219649.321,
空白時間1 (0.5秒),canvas.Screen,9_0_0,2023-01-15T12:14:39.132Z,,,d,,,270,349.47000000000116,timeout,d.jpg,,,220164,220163.69999980927,219820.09999990463,219821.39999961853,219649.321,219998.791,
注視(1秒),canvas.Screen,9_0_1,2023-01-15T12:14:39.979Z,,,d,,,270,849.1790000000037,timeout,d.jpg,,,221011.5,221011.19999980927,220163.69999980927,220164.2999997139,219998.791,220847.97,
空白時間2 (0.5秒),canvas.Screen,9_0_2,2023-01-15T12:14:40.331Z,,,d,,,270,349.7809999999881,timeout,d.jpg,,,221363.09999990463,221362.7999997139,221011.19999980927,221011.59999990463,220847.97,221197.751,
刺激提示,canvas.Screen,9_0_3,2023-01-15T12:14:41.186Z,,,d,true,d,270,1019.5489997139084,response,d.jpg,d,keypress(j),222217.89999961853,222217.2999997139,221362.7999997139,221363.19999980927,221197.751,222063.602,
フィードバック(0.5秒),canvas.Screen,9_0_4,2023-01-15T12:14:41.673Z,,,d,,,270,499.54099999999744,timeout,d.jpg,,,222705.09999990463,222546.51,222047.34,222219.09999990463,222063.602,222563.143,
トライアル,flow.Sequence,9_0,2023-01-15T12:14:41.674Z,,,d,,,270,2897.189000000013,completion,d.jpg,,,222706.19999980927,222546.51,219820.09999990463,219821.2999997139,219649.321,222563.143,
空白時間1 (0.5秒),canvas.Screen,9_1_0,2023-01-15T12:14:42.052Z,,,d,,,90,350.0139999999956,timeout,d.jpg,,,223084.59999990463,223084.2999997139,222546.51,222706.59999990463,222563.143,222913.157,
注視(1秒),canvas.Screen,9_1_1,2023-01-15T12:14:42.891Z,,,d,,,90,848.99099999998,timeout,d.jpg,,,223923.69999980927,223923.5,223084.2999997139,223084.7999997139,222913.157,223762.148,
空白時間2 (0.5秒),canvas.Screen,9_1_2,2023-01-15T12:14:43.251Z,,,d,,,90,349.7300000000105,timeout,d.jpg,,,224283.5,224283.19999980927,223923.5,223923.7999997139,223762.148,224111.878,
刺激提示,canvas.Screen,9_1_3,2023-01-15T12:14:44.150Z,,,d,true,d,90,1069.3219998092682,response,d.jpg,d,keypress(j),225182.2999997139,225181.19999980927,224283.19999980927,224283.7999997139,224111.878,225060.98,
フィードバック(0.5秒),canvas.Screen,9_1_4,2023-01-15T12:14:44.547Z,,,d,,,90,349.7069999999949,timeout,d.jpg,,,225579.69999980927,225579.5,225044.7,225204.89999961853,225060.98,225410.687,
トライアル,flow.Sequence,9_1,2023-01-15T12:14:44.548Z,,,d,,,90,3016.356999999989,completion,d.jpg,,,225579.7999997139,225579.5,222546.51,222706.5,222563.143,225410.687,
空白時間1 (0.5秒),canvas.Screen,9_2_0,2023-01-15T12:14:44.903Z,,,b,,,135,366.38099999999395,timeout,b.jpg,,,225935,225934.69999980927,225579.5,225580,225410.687,225777.068,
注視(1秒),canvas.Screen,9_2_1,2023-01-15T12:14:45.756Z,,,b,,,135,849.2729999999865,timeout,b.jpg,,,226788.09999990463,226787.7999997139,225934.69999980927,225935.09999990463,225777.068,226626.341,
空白時間2 (0.5秒),canvas.Screen,9_2_2,2023-01-15T12:14:46.115Z,,,b,,,135,349.8160000000207,timeout,b.jpg,,,227147.39999961853,227147,226787.7999997139,226788.09999990463,226626.341,226976.157,
刺激提示,canvas.Screen,9_2_3,2023-01-15T12:14:47.458Z,,,b,true,b,135,1513.6429997138912,response,b.jpg,b,keypress(f),228490.39999961853,228489.7999997139,227147,227147.69999980927,226976.157,228341.471,
フィードバック(0.5秒),canvas.Screen,9_2_4,2023-01-15T12:14:47.827Z,,,b,,,135,349.8150000000023,timeout,b.jpg,,,228859.59999990463,228859.2999997139,228324.898,228491.09999990463,228341.471,228691.286,
トライアル,flow.Sequence,9_2,2023-01-15T12:14:47.828Z,,,b,,,135,3448.6129997138923,completion,b.jpg,,,228860,228859.2999997139,225579.5,225580,225410.687,228691.286,
空白時間1 (0.5秒),canvas.Screen,9_3_0,2023-01-15T12:14:48.180Z,,,b,,,270,349.7939999999944,timeout,b.jpg,,,229212.39999961853,229212.09999990463,228859.2999997139,228860.09999990463,228691.286,229041.08,
注視(1秒),canvas.Screen,9_3_1,2023-01-15T12:14:49.019Z,,,b,,,270,849.119000000006,timeout,b.jpg,,,230051,230050.7999997139,229212.09999990463,229212.59999990463,229041.08,229890.199,
空白時間2 (0.5秒),canvas.Screen,9_3_2,2023-01-15T12:14:49.372Z,,,b,,,270,349.6469999999972,timeout,b.jpg,,,230404.7999997139,230404.39999961853,230050.7999997139,230051,229890.199,230239.846,
刺激提示,canvas.Screen,9_3_3,2023-01-15T12:14:50.738Z,,,b,true,b,270,1529.8539998092747,response,b.jpg,b,keypress(f),231770.7999997139,231769.69999980927,230404.39999961853,230405.09999990463,230239.846,231638.742,
フィードバック(0.5秒),canvas.Screen,9_3_4,2023-01-15T12:14:51.124Z,,,b,,,270,349.6009999999951,timeout,b.jpg,,,232155.89999961853,232155.59999990463,231621.912,231785.59999990463,231638.742,231988.343,
トライアル,flow.Sequence,9_3,2023-01-15T12:14:51.124Z,,,b,,,270,3464.31399990464,completion,b.jpg,,,232156.39999961853,232155.59999990463,228859.2999997139,228860.09999990463,228691.286,231988.343,
空白時間1 (0.5秒),canvas.Screen,9_4_0,2023-01-15T12:14:51.476Z,,,d,,,315,349.67500000001746,timeout,d.jpg,,,232508.69999980927,232508.39999961853,232155.59999990463,232156.69999980927,231988.343,232338.018,
注視(1秒),canvas.Screen,9_4_1,2023-01-15T12:14:52.316Z,,,d,,,315,849.3229999999749,timeout,d.jpg,,,233348.5,233348.2999997139,232508.39999961853,232509,232338.018,233187.341,
空白時間2 (0.5秒),canvas.Screen,9_4_2,2023-01-15T12:14:52.675Z,,,d,,,315,349.71000000002095,timeout,d.jpg,,,233707.5,233707.09999990463,233348.2999997139,233348.59999990463,233187.341,233537.051,
刺激提示,canvas.Screen,9_4_3,2023-01-15T12:14:53.847Z,,,d,true,d,315,1341.5489999046258,response,d.jpg,d,keypress(j),234879.09999990463,234878.59999990463,233707.09999990463,233707.69999980927,233537.051,234735.822,
フィードバック(0.5秒),canvas.Screen,9_4_4,2023-01-15T12:14:54.220Z,,,d,,,315,349.7960000000021,timeout,d.jpg,,,235252.19999980927,235251.69999980927,234719.421,234881,234735.822,235085.618,
トライアル,flow.Sequence,9_4,2023-01-15T12:14:54.220Z,,,d,,,315,3263.3569998092717,completion,d.jpg,,,235252.69999980927,235251.69999980927,232155.59999990463,232156.59999990463,231988.343,235085.618,
空白時間1 (0.5秒),canvas.Screen,9_5_0,2023-01-15T12:14:54.571Z,,,d,,,135,349.6620000000112,timeout,d.jpg,,,235603.69999980927,235603.39999961853,235251.69999980927,235253,235085.618,235435.28,
注視(1秒),canvas.Screen,9_5_1,2023-01-15T12:14:55.412Z,,,d,,,135,849.3600000000151,timeout,d.jpg,,,236444.09999990463,236443.5,235603.39999961853,235603.7999997139,235435.28,236284.64,
空白時間2 (0.5秒),canvas.Screen,9_5_2,2023-01-15T12:14:55.771Z,,,d,,,135,349.63099999999395,timeout,d.jpg,,,236803.59999990463,236803.5,236443.5,236444.5,236284.64,236634.271,
刺激提示,canvas.Screen,9_5_3,2023-01-15T12:14:57.244Z,,,d,true,d,135,1641.9289998092572,response,d.jpg,d,keypress(j),238276.7999997139,238276.19999980927,236803.5,236804.69999980927,236634.271,238149.74,
フィードバック(0.5秒),canvas.Screen,9_5_4,2023-01-15T12:14:57.636Z,,,d,,,135,349.57300000000396,timeout,d.jpg,,,238668.39999961853,238668.09999990463,238133.219,238294.59999990463,238149.74,238499.313,
トライアル,flow.Sequence,9_5,2023-01-15T12:14:57.637Z,,,d,,,135,3582.481999904645,completion,d.jpg,,,238668.89999961853,238668.09999990463,235251.69999980927,235252.89999961853,235085.618,238499.313,
空白時間1 (0.5秒),canvas.Screen,9_6_0,2023-01-15T12:14:57.988Z,,,d,,,45,349.6840000000084,timeout,d.jpg,,,239020.59999990463,239020.2999997139,238668.09999990463,238669.09999990463,238499.313,238848.997,
注視(1秒),canvas.Screen,9_6_1,2023-01-15T12:14:58.827Z,,,d,,,45,849.2479999999923,timeout,d.jpg,,,239859.19999980927,239859.09999990463,239020.2999997139,239020.69999980927,238848.997,239698.245,
空白時間2 (0.5秒),canvas.Screen,9_6_2,2023-01-15T12:14:59.187Z,,,d,,,45,349.7130000000179,timeout,d.jpg,,,240219.19999980927,240219,239859.09999990463,239859.2999997139,239698.245,240047.958,
刺激提示,canvas.Screen,9_6_3,2023-01-15T12:14:59.780Z,,,d,true,d,45,763.2419998092519,response,d.jpg,d,keypress(j),240812.19999980927,240811.19999980927,240219,240219.19999980927,240047.958,240663.983,
フィードバック(0.5秒),canvas.Screen,9_6_4,2023-01-15T12:15:00.147Z,,,d,,,45,349.74400000000605,timeout,d.jpg,,,241179.69999980927,241179.5,240647.396,240815,240663.983,241013.727,
トライアル,flow.Sequence,9_6,2023-01-15T12:15:00.148Z,,,d,,,45,2680.1870000000054,completion,d.jpg,,,241179.89999961853,241179.5,238668.09999990463,238669,238499.313,241013.727,
空白時間1 (0.5秒),canvas.Screen,9_7_0,2023-01-15T12:15:00.500Z,,,d,,,0,349.7139999999781,timeout,d.jpg,,,241531.7999997139,241531.59999990463,241179.5,241180.09999990463,241013.727,241363.441,
注視(1秒),canvas.Screen,9_7_1,2023-01-15T12:15:01.339Z,,,d,,,0,849.3000000000175,timeout,d.jpg,,,242371.59999990463,242371.2999997139,241531.59999990463,241532.19999980927,241363.441,242212.741,
空白時間2 (0.5秒),canvas.Screen,9_7_2,2023-01-15T12:15:01.699Z,,,d,,,0,349.752999999997,timeout,d.jpg,,,242731.7999997139,242731.5,242371.2999997139,242371.7999997139,242212.741,242562.494,
刺激提示,canvas.Screen,9_7_3,2023-01-15T12:15:02.281Z,,,d,true,d,0,750.7059998092591,response,d.jpg,d,keypress(j),243313.7999997139,243313.19999980927,242731.5,242732.09999990463,242562.494,243178.568,
フィードバック(0.5秒),canvas.Screen,9_7_4,2023-01-15T12:15:02.660Z,,,d,,,0,349.68299999999,timeout,d.jpg,,,243691.89999961853,243691.5,243162.194,243322.2999997139,243178.568,243528.251,
トライアル,flow.Sequence,9_7,2023-01-15T12:15:02.660Z,,,d,,,0,2677.7729999999865,completion,d.jpg,,,243692.39999961853,243691.5,241179.5,241180,241013.727,243528.251,
空白時間1 (0.5秒),canvas.Screen,9_8_0,2023-01-15T12:15:03.012Z,,,b,,,315,349.8510000000242,timeout,b.jpg,,,244043.89999961853,244043.7999997139,243691.5,243692.59999990463,243528.251,243878.102,
注視(1秒),canvas.Screen,9_8_1,2023-01-15T12:15:03.852Z,,,b,,,315,832.4279999999853,timeout,b.jpg,,,244884.59999990463,244884.5,244043.7999997139,244044,243878.102,244710.53,
空白時間2 (0.5秒),canvas.Screen,9_8_2,2023-01-15T12:15:04.195Z,,,b,,,315,349.7509999999893,timeout,b.jpg,,,245227.2999997139,245227.19999980927,244884.5,244884.69999980927,244710.53,245060.281,
刺激提示,canvas.Screen,9_8_3,2023-01-15T12:15:05.184Z,,,b,true,b,315,1154.6189996185421,response,b.jpg,b,keypress(f),246216,246214.89999961853,245227.19999980927,245227.39999961853,245060.281,246075.929,
フィードバック(0.5秒),canvas.Screen,9_8_4,2023-01-15T12:15:05.685Z,,,b,,,315,499.612999999983,timeout,b.jpg,,,246717.59999990463,246558.931,246059.511,246220.39999961853,246075.929,246575.542,
トライアル,flow.Sequence,9_8,2023-01-15T12:15:05.686Z,,,b,,,315,3030.680000000022,completion,b.jpg,,,246717.89999961853,246558.931,243691.5,243692.59999990463,243528.251,246575.542,
空白時間1 (0.5秒),canvas.Screen,9_9_0,2023-01-15T12:15:06.185Z,,,b,,,225,499.58500000002095,timeout,b.jpg,,,247217.2999997139,247058.704,246558.931,246718.09999990463,246575.542,247075.127,
注視(1秒),canvas.Screen,9_9_1,2023-01-15T12:15:07.051Z,,,b,,,225,849.6059999999998,timeout,b.jpg,,,248083.19999980927,248082.89999961853,247058.704,247217.5,247075.127,247924.733,
空白時間2 (0.5秒),canvas.Screen,9_9_2,2023-01-15T12:15:07.411Z,,,b,,,225,349.372000000003,timeout,b.jpg,,,248443.59999990463,248443.5,248082.89999961853,248083.39999961853,247924.733,248274.105,
刺激提示,canvas.Screen,9_9_3,2023-01-15T12:15:09.039Z,,,b,true,b,225,1795.994999904622,response,b.jpg,b,keypress(f),250071.19999980927,250070.09999990463,248443.5,248443.7999997139,248274.105,249939.229,
フィードバック(0.5秒),canvas.Screen,9_9_4,2023-01-15T12:15:09.427Z,,,b,,,225,350.0210000000079,timeout,b.jpg,,,250459.59999990463,250459.09999990463,249923.004,250094.39999961853,249939.229,250289.25,
トライアル,flow.Sequence,9_9,2023-01-15T12:15:09.428Z,,,b,,,225,3883.557999904646,completion,b.jpg,,,250460.09999990463,250459.09999990463,246558.931,246718,246575.542,250289.25,
空白時間1 (0.5秒),canvas.Screen,9_10_0,2023-01-15T12:15:09.771Z,,,b,,,90,349.58300000001327,timeout,b.jpg,,,250803.09999990463,250802.7999997139,250459.09999990463,250460.2999997139,250289.25,250638.833,
注視(1秒),canvas.Screen,9_10_1,2023-01-15T12:15:10.611Z,,,b,,,90,832.4929999999877,timeout,b.jpg,,,251643.09999990463,251642.89999961853,250802.7999997139,250803.39999961853,250638.833,251471.326,
空白時間2 (0.5秒),canvas.Screen,9_10_2,2023-01-15T12:15:10.956Z,,,b,,,90,349.85899999999674,timeout,b.jpg,,,251988.59999990463,251988.5,251642.89999961853,251643.09999990463,251471.326,251821.185,
刺激提示,canvas.Screen,9_10_3,2023-01-15T12:15:12.058Z,,,b,true,b,90,1267.914999904635,response,b.jpg,b,keypress(f),253090.19999980927,253089.09999990463,251988.5,251988.69999980927,251821.185,252936.664,
フィードバック(0.5秒),canvas.Screen,9_10_4,2023-01-15T12:15:12.420Z,,,b,,,90,349.81100000001607,timeout,b.jpg,,,253452.19999980927,253451.7999997139,252920.731,253092.39999961853,252936.664,253286.475,
トライアル,flow.Sequence,9_10,2023-01-15T12:15:12.420Z,,,b,,,90,3162.5499997138977,completion,b.jpg,,,253452.59999990463,253451.7999997139,250459.09999990463,250460.19999980927,250289.25,253286.475,
空白時間1 (0.5秒),canvas.Screen,9_11_0,2023-01-15T12:15:12.771Z,,,b,,,45,349.64299999998184,timeout,b.jpg,,,253803.59999990463,253803.2999997139,253451.7999997139,253453,253286.475,253636.118,
注視(1秒),canvas.Screen,9_11_1,2023-01-15T12:15:13.612Z,,,b,,,45,849.5190000000002,timeout,b.jpg,,,254644.2999997139,254644,253803.2999997139,253804,253636.118,254485.637,
空白時間2 (0.5秒),canvas.Screen,9_11_2,2023-01-15T12:15:13.971Z,,,b,,,45,349.38400000002,timeout,b.jpg,,,255003.89999961853,255003.59999990463,254644,254644.59999990463,254485.637,254835.021,
刺激提示,canvas.Screen,9_11_3,2023-01-15T12:15:14.655Z,,,b,true,b,45,851.6789998092572,response,b.jpg,b,keypress(f),255687.19999980927,255686.69999980927,255003.59999990463,255004,254835.021,255551.045,
フィードバック(0.5秒),canvas.Screen,9_11_4,2023-01-15T12:15:15.036Z,,,b,,,45,350.0799999999872,timeout,b.jpg,,,256068.19999980927,256067.89999961853,255534.398,255698.7999997139,255551.045,255901.125,
トライアル,flow.Sequence,9_11,2023-01-15T12:15:15.036Z,,,b,,,45,2781.4249996185245,completion,b.jpg,,,256068.39999961853,256067.89999961853,253451.7999997139,253452.89999961853,253286.475,255901.125,
空白時間1 (0.5秒),canvas.Screen,9_12_0,2023-01-15T12:15:15.387Z,,,b,,,0,349.3619999999937,timeout,b.jpg,,,256419.59999990463,256419.2999997139,256067.89999961853,256068.59999990463,255901.125,256250.487,
注視(1秒),canvas.Screen,9_12_1,2023-01-15T12:15:16.227Z,,,b,,,0,849.2149999999965,timeout,b.jpg,,,257259.59999990463,257259.39999961853,256419.2999997139,256419.69999980927,256250.487,257099.702,
空白時間2 (0.5秒),canvas.Screen,9_12_2,2023-01-15T12:15:16.587Z,,,b,,,0,349.68900000001304,timeout,b.jpg,,,257619.69999980927,257619.39999961853,257259.39999961853,257259.59999990463,257099.702,257449.391,
刺激提示,canvas.Screen,9_12_3,2023-01-15T12:15:17.449Z,,,b,true,b,0,1031.008999618527,response,b.jpg,b,keypress(f),258481.2999997139,258480.39999961853,257619.39999961853,257619.89999961853,257449.391,258331.902,
フィードバック(0.5秒),canvas.Screen,9_12_4,2023-01-15T12:15:17.819Z,,,b,,,0,349.8969999999972,timeout,b.jpg,,,258852,258851.7999997139,258315.347,258484.39999961853,258331.902,258681.799,
トライアル,flow.Sequence,9_12,2023-01-15T12:15:17.819Z,,,b,,,0,2950.6749997138977,completion,b.jpg,,,258852.09999990463,258851.7999997139,256067.89999961853,256068.59999990463,255901.125,258681.799,
空白時間1 (0.5秒),canvas.Screen,9_13_0,2023-01-15T12:15:18.164Z,,,d,,,180,349.86000000001513,timeout,d.jpg,,,259196.2999997139,259196.19999980927,258851.7999997139,258852.19999980927,258681.799,259031.659,
注視(1秒),canvas.Screen,9_13_1,2023-01-15T12:15:19.011Z,,,d,,,180,865.6319999999832,timeout,d.jpg,,,260043.2999997139,260043.09999990463,259196.19999980927,259196.39999961853,259031.659,259897.291,
空白時間2 (0.5秒),canvas.Screen,9_13_2,2023-01-15T12:15:19.379Z,,,d,,,180,366.3319999999949,timeout,d.jpg,,,260412,260411.7999997139,260043.09999990463,260043.39999961853,259897.291,260263.623,
刺激提示,canvas.Screen,9_13_3,2023-01-15T12:15:22.075Z,,,d,true,d,180,2842.9769999046403,response,d.jpg,d,keypress(j),263107.69999980927,263106.59999990463,260411.7999997139,260412.09999990463,260263.623,262978.522,
フィードバック(0.5秒),canvas.Screen,9_13_4,2023-01-15T12:15:22.459Z,,,d,,,180,349.1240000000107,timeout,d.jpg,,,263491.5,263491.2999997139,262961.2,263121.5,262978.522,263327.646,
トライアル,flow.Sequence,9_13,2023-01-15T12:15:22.459Z,,,d,,,180,4809.500999713899,completion,d.jpg,,,263491.89999961853,263491.2999997139,258851.7999997139,258852.19999980927,258681.799,263327.646,
空白時間1 (0.5秒),canvas.Screen,9_14_0,2023-01-15T12:15:22.811Z,,,b,,,180,349.7579999999725,timeout,b.jpg,,,263843.5,263843.09999990463,263491.2999997139,263492.09999990463,263327.646,263677.404,
注視(1秒),canvas.Screen,9_14_1,2023-01-15T12:15:23.652Z,,,b,,,180,849.4470000000438,timeout,b.jpg,,,264684.89999961853,264684.59999990463,263843.09999990463,263843.69999980927,263677.404,264526.851,
空白時間2 (0.5秒),canvas.Screen,9_14_2,2023-01-15T12:15:24.012Z,,,b,,,180,349.4539999999688,timeout,b.jpg,,,265044.39999961853,265044,264684.59999990463,264685.09999990463,264526.851,264876.305,
刺激提示,canvas.Screen,9_14_3,2023-01-15T12:15:25.391Z,,,b,true,b,180,1547.195000000007,response,b.jpg,b,keypress(f),266424.09999990463,266423.5,265044,265044.59999990463,264876.305,266292.452,
フィードバック(0.5秒),canvas.Screen,9_14_4,2023-01-15T12:15:25.779Z,,,b,,,180,349.21100000001024,timeout,b.jpg,,,266812.09999990463,266811.69999980927,266258.631,266432.2999997139,266292.452,266641.663,
トライアル,flow.Sequence,9_14,2023-01-15T12:15:25.780Z,,,b,,,180,3484.053999809257,completion,b.jpg,,,266812.5,266811.69999980927,263491.2999997139,263492,263327.646,266641.663,
空白時間1 (0.5秒),canvas.Screen,9_15_0,2023-01-15T12:15:26.131Z,,,d,,,225,349.4569999999949,timeout,d.jpg,,,267164.09999990463,267163.69999980927,266811.69999980927,266812.7999997139,266641.663,266991.12,
注視(1秒),canvas.Screen,9_15_1,2023-01-15T12:15:26.971Z,,,d,,,225,849.2289999999921,timeout,d.jpg,,,268003.39999961853,268003.19999980927,267163.69999980927,267164.39999961853,266991.12,267840.349,
空白時間2 (0.5秒),canvas.Screen,9_15_2,2023-01-15T12:15:27.323Z,,,d,,,225,349.65600000001723,timeout,d.jpg,,,268355.89999961853,268355.59999990463,268003.19999980927,268003.39999961853,267840.349,268190.005,
刺激提示,canvas.Screen,9_15_3,2023-01-15T12:15:28.499Z,,,d,true,d,225,1341.4949999999953,response,d.jpg,d,keypress(j),269532.09999990463,269531.5,268355.59999990463,268356,268190.005,269388.994,
フィードバック(0.5秒),canvas.Screen,9_15_4,2023-01-15T12:15:28.875Z,,,d,,,225,349.8520000000135,timeout,d.jpg,,,269908.09999990463,269907.59999990463,269372.499,269544.89999961853,269388.994,269738.846,
トライアル,flow.Sequence,9_15,2023-01-15T12:15:28.876Z,,,d,,,225,3265.936999904632,completion,d.jpg,,,269908.5,269907.59999990463,266811.69999980927,266812.7999997139,266641.663,269738.846,
タスクのセット,flow.Loop,9,2023-01-15T12:15:28.876Z,,,,,,,50258.278999904636,completion,,,,269908.7999997139,269907.59999990463,219820.09999990463,219821.2999997139,219649.321,269738.846,
空白時間1 (0.5秒),canvas.Screen,10_0_0,2023-01-15T12:15:29.228Z,,,b,,,90,349.68899999995483,timeout,b.jpg,,,270260.2999997139,270260.19999980927,269907.59999990463,269909.09999990463,269738.846,270088.535,
注視(1秒),canvas.Screen,10_0_1,2023-01-15T12:15:30.067Z,,,b,,,90,849.2860000000219,timeout,b.jpg,,,271100,271099.7999997139,270260.19999980927,270260.39999961853,270088.535,270937.821,
空白時間2 (0.5秒),canvas.Screen,10_0_2,2023-01-15T12:15:30.419Z,,,b,,,90,350.0779999999795,timeout,b.jpg,,,271451.7999997139,271451.5,271099.7999997139,271100.09999990463,270937.821,271287.899,
刺激提示,canvas.Screen,10_0_3,2023-01-15T12:15:31.523Z,,,b,true,b,90,1266.400999713922,response,b.jpg,b,keypress(f),272555.39999961853,272554.2999997139,271451.5,271452.09999990463,271287.899,272403.102,
フィードバック(0.5秒),canvas.Screen,10_0_4,2023-01-15T12:15:31.892Z,,,b,,,90,349.69799999997485,timeout,b.jpg,,,272924.2999997139,272923.7999997139,272386.401,272557.69999980927,272403.102,272752.8,
トライアル,flow.Sequence,10_0,2023-01-15T12:15:31.892Z,,,b,,,90,3184.953999713878,completion,b.jpg,,,272924.59999990463,272923.7999997139,269907.59999990463,269909.09999990463,269738.846,272752.8,
空白時間1 (0.5秒),canvas.Screen,10_1_0,2023-01-15T12:15:32.363Z,,,d,,,225,499.4420000000391,timeout,d.jpg,,,273396.09999990463,273235.573,272923.7999997139,272924.89999961853,272752.8,273252.242,
注視(1秒),canvas.Screen,10_1_1,2023-01-15T12:15:33.227Z,,,d,,,225,849.3260000000009,timeout,d.jpg,,,274259.19999980927,274258.89999961853,273235.573,273396.2999997139,273252.242,274101.568,
空白時間2 (0.5秒),canvas.Screen,10_1_2,2023-01-15T12:15:33.587Z,,,d,,,225,350,timeout,d.jpg,,,274620,274619.69999980927,274258.89999961853,274259.5,274101.568,274451.568,
刺激提示,canvas.Screen,10_1_3,2023-01-15T12:15:34.677Z,,,d,true,d,225,1257.1319998092367,response,d.jpg,d,keypress(j),275709.69999980927,275708.69999980927,274619.69999980927,274620.19999980927,274451.568,275566.98,
フィードバック(0.5秒),canvas.Screen,10_1_4,2023-01-15T12:15:35.052Z,,,d,,,225,349.66600000002654,timeout,d.jpg,,,276084.89999961853,276084.59999990463,275550.44,275720.5,275566.98,275916.646,
トライアル,flow.Sequence,10_1,2023-01-15T12:15:35.053Z,,,d,,,225,3331.799999904644,completion,d.jpg,,,276085.19999980927,276084.59999990463,272923.7999997139,272924.69999980927,272752.8,275916.646,
空白時間1 (0.5秒),canvas.Screen,10_2_0,2023-01-15T12:15:35.403Z,,,d,,,45,349.71199999999953,timeout,d.jpg,,,276435.7999997139,276435.59999990463,276084.59999990463,276085.39999961853,275916.646,276266.358,
注視(1秒),canvas.Screen,10_2_1,2023-01-15T12:15:36.243Z,,,d,,,45,849.3929999999818,timeout,d.jpg,,,277275.69999980927,277275.39999961853,276435.59999990463,276435.89999961853,276266.358,277115.751,
空白時間2 (0.5秒),canvas.Screen,10_2_2,2023-01-15T12:15:36.603Z,,,d,,,45,349.5690000000177,timeout,d.jpg,,,277635.2999997139,277634.89999961853,277275.39999961853,277276,277115.751,277465.32,
刺激提示,canvas.Screen,10_2_3,2023-01-15T12:15:37.249Z,,,d,true,d,45,815.0799996185233,response,d.jpg,d,keypress(j),278281.19999980927,278280.39999961853,277634.89999961853,277635.59999990463,277465.32,278131.3,
フィードバック(0.5秒),canvas.Screen,10_2_4,2023-01-15T12:15:37.619Z,,,d,,,45,350.21199999999953,timeout,d.jpg,,,278651.89999961853,278651.39999961853,278114.81,278284.19999980927,278131.3,278481.512,
トライアル,flow.Sequence,10_2,2023-01-15T12:15:37.620Z,,,d,,,45,2734.7539996185224,completion,d.jpg,,,278652.2999997139,278651.39999961853,276084.59999990463,276085.2999997139,275916.646,278481.512,
空白時間1 (0.5秒),canvas.Screen,10_3_0,2023-01-15T12:15:37.964Z,,,d,,,0,349.27900000003865,timeout,d.jpg,,,278996.89999961853,278996.5,278651.39999961853,278652.59999990463,278481.512,278830.791,
注視(1秒),canvas.Screen,10_3_1,2023-01-15T12:15:38.811Z,,,d,,,0,849.2189999999828,timeout,d.jpg,,,279843.59999990463,279843.2999997139,278996.5,278997.19999980927,278830.791,279680.01,
空白時間2 (0.5秒),canvas.Screen,10_3_2,2023-01-15T12:15:39.163Z,,,d,,,0,349.7619999999879,timeout,d.jpg,,,280195.59999990463,280195.2999997139,279843.2999997139,279843.7999997139,279680.01,280029.772,
刺激提示,canvas.Screen,10_3_3,2023-01-15T12:15:39.689Z,,,d,true,d,0,691.1279996185331,response,d.jpg,d,keypress(j),280721.5,280720.89999961853,280195.2999997139,280195.89999961853,280029.772,280579.308,
フィードバック(0.5秒),canvas.Screen,10_3_4,2023-01-15T12:15:40.067Z,,,d,,,0,349.61599999998,timeout,d.jpg,,,281099.7999997139,281099.69999980927,280563.273,280723,280579.308,280928.924,
トライアル,flow.Sequence,10_3,2023-01-15T12:15:40.067Z,,,d,,,0,2618.1879998092772,completion,d.jpg,,,281100,281099.69999980927,278651.39999961853,278652.59999990463,278481.512,280928.924,
空白時間1 (0.5秒),canvas.Screen,10_4_0,2023-01-15T12:15:40.411Z,,,d,,,90,349.83299999998417,timeout,d.jpg,,,281443.59999990463,281443.19999980927,281099.69999980927,281100.09999990463,280928.924,281278.757,
注視(1秒),canvas.Screen,10_4_1,2023-01-15T12:15:41.251Z,,,d,,,90,832.7240000000456,timeout,d.jpg,,,282283.89999961853,282283.69999980927,281443.19999980927,281443.89999961853,281278.757,282111.481,
空白時間2 (0.5秒),canvas.Screen,10_4_2,2023-01-15T12:15:41.588Z,,,d,,,90,349.6809999999823,timeout,d.jpg,,,282620.5,282620.2999997139,282283.69999980927,282284.19999980927,282111.481,282461.162,
刺激提示,canvas.Screen,10_4_3,2023-01-15T12:15:42.449Z,,,d,true,d,90,1019.2379996185191,response,d.jpg,d,keypress(j),283481.19999980927,283480.39999961853,282620.2999997139,282620.69999980927,282461.162,283360.183,
フィードバック(0.5秒),canvas.Screen,10_4_4,2023-01-15T12:15:42.844Z,,,d,,,90,349.6809999999823,timeout,d.jpg,,,283876.19999980927,283875.7999997139,283343.64,283502.39999961853,283360.183,283709.864,
トライアル,flow.Sequence,10_4,2023-01-15T12:15:42.844Z,,,d,,,90,2946.8759997138986,completion,d.jpg,,,283876.59999990463,283875.7999997139,281099.69999980927,281100,280928.924,283709.864,
空白時間1 (0.5秒),canvas.Screen,10_5_0,2023-01-15T12:15:43.195Z,,,d,,,135,349.7129999999888,timeout,d.jpg,,,284227.5,284227.2999997139,283875.7999997139,283876.89999961853,283709.864,284059.577,
注視(1秒),canvas.Screen,10_5_1,2023-01-15T12:15:44.035Z,,,d,,,135,849.2679999999818,timeout,d.jpg,,,285067.2999997139,285067,284227.2999997139,284227.7999997139,284059.577,284908.845,
空白時間2 (0.5秒),canvas.Screen,10_5_2,2023-01-15T12:15:44.395Z,,,d,,,135,349.68900000001304,timeout,d.jpg,,,285427.2999997139,285426.89999961853,285067,285067.5,284908.845,285258.534,
刺激提示,canvas.Screen,10_5_3,2023-01-15T12:15:45.194Z,,,d,false,d,135,967.3659996185452,response,d.jpg,b,keypress(f),286226.89999961853,286225.89999961853,285426.89999961853,285427.59999990463,285258.534,286074.367,
フィードバック(0.5秒),canvas.Screen,10_5_4,2023-01-15T12:15:45.563Z,,,d,,,135,350.0789999999688,timeout,d.jpg,,,286595.69999980927,286595.5,286058.063,286230.5,286074.367,286424.446,
トライアル,flow.Sequence,10_5,2023-01-15T12:15:45.563Z,,,d,,,135,2885.6359999999986,completion,d.jpg,,,286595.89999961853,286595.5,283875.7999997139,283876.7999997139,283709.864,286424.446,
空白時間1 (0.5秒),canvas.Screen,10_6_0,2023-01-15T12:15:45.907Z,,,b,,,270,349.3769999999786,timeout,b.jpg,,,286939.5,286939.19999980927,286595.5,286596.09999990463,286424.446,286773.823,
注視(1秒),canvas.Screen,10_6_1,2023-01-15T12:15:46.748Z,,,b,,,270,866.1820000000298,timeout,b.jpg,,,287780.69999980927,287780.59999990463,286939.19999980927,286939.7999997139,286773.823,287640.005,
空白時間2 (0.5秒),canvas.Screen,10_6_2,2023-01-15T12:15:47.123Z,,,b,,,270,349.554999999993,timeout,b.jpg,,,288155.5,288155.09999990463,287780.59999990463,287780.7999997139,287640.005,287989.56,
刺激提示,canvas.Screen,10_6_3,2023-01-15T12:15:48.042Z,,,b,true,b,270,1084.539999904635,response,b.jpg,b,keypress(f),289074.59999990463,289074.09999990463,288155.09999990463,288155.69999980927,287989.56,288921.972,
フィードバック(0.5秒),canvas.Screen,10_6_4,2023-01-15T12:15:48.403Z,,,b,,,270,349.6620000000112,timeout,b.jpg,,,289435.7999997139,289435.59999990463,288905.354,289075.39999961853,288921.972,289271.634,
トライアル,flow.Sequence,10_6,2023-01-15T12:15:48.403Z,,,b,,,270,3011.1539999046363,completion,b.jpg,,,289435.89999961853,289435.59999990463,286595.5,286596,286424.446,289271.634,
空白時間1 (0.5秒),canvas.Screen,10_7_0,2023-01-15T12:15:48.756Z,,,d,,,180,349.68599999998696,timeout,d.jpg,,,289788.39999961853,289788.09999990463,289435.59999990463,289436,289271.634,289621.32,
注視(1秒),canvas.Screen,10_7_1,2023-01-15T12:15:49.594Z,,,d,,,180,832.7430000000168,timeout,d.jpg,,,290627.09999990463,290626.89999961853,289788.09999990463,289788.59999990463,289621.32,290454.063,
空白時間2 (0.5秒),canvas.Screen,10_7_2,2023-01-15T12:15:49.940Z,,,d,,,180,349.6389999999665,timeout,d.jpg,,,290972.69999980927,290972.2999997139,290626.89999961853,290627.09999990463,290454.063,290803.702,
刺激提示,canvas.Screen,10_7_3,2023-01-15T12:15:51.713Z,,,d,false,d,180,1940.8979999046423,response,d.jpg,b,keypress(f),292745.19999980927,292744.59999990463,290972.2999997139,290973.09999990463,290803.702,292619.218,
フィードバック(0.5秒),canvas.Screen,10_7_4,2023-01-15T12:15:52.108Z,,,d,,,180,349.4750000000349,timeout,d.jpg,,,293140.19999980927,293139.7999997139,292602.111,292759.89999961853,292619.218,292968.693,
トライアル,flow.Sequence,10_7,2023-01-15T12:15:52.108Z,,,d,,,180,3868.1659997138777,completion,d.jpg,,,293140.7999997139,293139.7999997139,289435.59999990463,289436,289271.634,292968.693,
空白時間1 (0.5秒),canvas.Screen,10_8_0,2023-01-15T12:15:52.578Z,,,b,,,180,499.32299999997485,timeout,b.jpg,,,293610.19999980927,293451.533,293139.7999997139,293141.09999990463,292968.693,293468.016,
注視(1秒),canvas.Screen,10_8_1,2023-01-15T12:15:53.443Z,,,b,,,180,849.2810000000172,timeout,b.jpg,,,294475.2999997139,294474.89999961853,293451.533,293610.39999961853,293468.016,294317.297,
空白時間2 (0.5秒),canvas.Screen,10_8_2,2023-01-15T12:15:53.803Z,,,b,,,180,349.6339999999618,timeout,b.jpg,,,294835.89999961853,294835.69999980927,294474.89999961853,294475.5,294317.297,294666.931,
刺激提示,canvas.Screen,10_8_3,2023-01-15T12:15:54.744Z,,,b,true,b,180,1109.1689999046503,response,b.jpg,b,keypress(f),295776.39999961853,295776.09999990463,294835.69999980927,294835.89999961853,294666.931,295632.689,
フィードバック(0.5秒),canvas.Screen,10_8_4,2023-01-15T12:15:55.242Z,,,b,,,180,499.6240000000107,timeout,b.jpg,,,296274.19999980927,296115.67,295616.492,295785.2999997139,295632.689,296132.313,
トライアル,flow.Sequence,10_8,2023-01-15T12:15:55.242Z,,,b,,,180,3146.9769999999553,completion,b.jpg,,,296274.5,296115.67,293139.7999997139,293141,292968.693,296132.313,
空白時間1 (0.5秒),canvas.Screen,10_9_0,2023-01-15T12:15:55.620Z,,,b,,,45,349.7739999999758,timeout,b.jpg,,,296652.2999997139,296652,296115.67,296274.59999990463,296132.313,296482.087,
注視(1秒),canvas.Screen,10_9_1,2023-01-15T12:15:56.460Z,,,b,,,45,849.2249999999767,timeout,b.jpg,,,297492.39999961853,297492.09999990463,296652,296652.59999990463,296482.087,297331.312,
空白時間2 (0.5秒),canvas.Screen,10_9_2,2023-01-15T12:15:56.819Z,,,b,,,45,349.6840000000084,timeout,b.jpg,,,297852,297851.59999990463,297492.09999990463,297492.59999990463,297331.312,297680.996,
刺激提示,canvas.Screen,10_9_3,2023-01-15T12:15:57.493Z,,,b,true,b,45,843.8039997139131,response,b.jpg,b,keypress(f),298525.2999997139,298524.7999997139,297851.59999990463,297852.39999961853,297680.996,298380.383,
フィードバック(0.5秒),canvas.Screen,10_9_4,2023-01-15T12:15:57.868Z,,,b,,,45,349.74600000004284,timeout,b.jpg,,,298900.19999980927,298899.7999997139,298363.855,298526.5,298380.383,298730.129,
トライアル,flow.Sequence,10_9,2023-01-15T12:15:57.868Z,,,b,,,45,2767.486999713874,completion,b.jpg,,,298900.69999980927,298899.7999997139,296115.67,296274.59999990463,296132.313,298730.129,
空白時間1 (0.5秒),canvas.Screen,10_10_0,2023-01-15T12:15:58.210Z,,,b,,,135,349.6149999999907,timeout,b.jpg,,,299243.09999990463,299242.89999961853,298899.7999997139,298901.09999990463,298730.129,299079.744,
注視(1秒),canvas.Screen,10_10_1,2023-01-15T12:15:59.060Z,,,b,,,135,849.2719999999972,timeout,b.jpg,,,300092.5,300092.09999990463,299242.89999961853,299243.19999980927,299079.744,299929.016,
空白時間2 (0.5秒),canvas.Screen,10_10_2,2023-01-15T12:15:59.411Z,,,b,,,135,350.0989999999874,timeout,b.jpg,,,300443.59999990463,300443.19999980927,300092.09999990463,300092.89999961853,299929.016,300279.115,
刺激提示,canvas.Screen,10_10_3,2023-01-15T12:16:01.065Z,,,b,true,b,135,1817.7849996185396,response,b.jpg,b,keypress(f),302097.7999997139,302096.89999961853,300443.19999980927,300443.7999997139,300279.115,301960.791,
フィードバック(0.5秒),canvas.Screen,10_10_4,2023-01-15T12:16:01.444Z,,,b,,,135,349.5349999999744,timeout,b.jpg,,,302476.19999980927,302475.7999997139,301944.269,302117.19999980927,301960.791,302310.326,
トライアル,flow.Sequence,10_10,2023-01-15T12:16:01.444Z,,,b,,,135,3745.6709997138823,completion,b.jpg,,,302476.59999990463,302475.7999997139,298899.7999997139,298901,298730.129,302310.326,
空白時間1 (0.5秒),canvas.Screen,10_11_0,2023-01-15T12:16:01.795Z,,,b,,,315,349.6900000000023,timeout,b.jpg,,,302827.5,302827.19999980927,302475.7999997139,302476.89999961853,302310.326,302660.016,
注視(1秒),canvas.Screen,10_11_1,2023-01-15T12:16:02.635Z,,,b,,,315,849.2390000000014,timeout,b.jpg,,,303667.59999990463,303667.2999997139,302827.19999980927,302827.69999980927,302660.016,303509.255,
空白時間2 (0.5秒),canvas.Screen,10_11_2,2023-01-15T12:16:02.995Z,,,b,,,315,349.6790000000037,timeout,b.jpg,,,304027.5,304027.2999997139,303667.2999997139,303667.7999997139,303509.255,303858.934,
刺激提示,canvas.Screen,10_11_3,2023-01-15T12:16:03.710Z,,,b,true,b,315,883.0659999999916,response,b.jpg,b,keypress(f),304742.59999990463,304742,304027.2999997139,304027.5,303858.934,304591.69,
フィードバック(0.5秒),canvas.Screen,10_11_4,2023-01-15T12:16:04.075Z,,,b,,,315,349.83500000002095,timeout,b.jpg,,,305108,305107.59999990463,304575.43,304743.5,304591.69,304941.525,
トライアル,flow.Sequence,10_11,2023-01-15T12:16:04.076Z,,,b,,,315,2797.2739999046316,completion,b.jpg,,,305108.39999961853,305107.59999990463,302475.7999997139,302476.89999961853,302310.326,304941.525,
空白時間1 (0.5秒),canvas.Screen,10_12_0,2023-01-15T12:16:04.427Z,,,d,,,315,349.6019999999553,timeout,d.jpg,,,305459.69999980927,305459.59999990463,305107.59999990463,305108.59999990463,304941.525,305291.127,
注視(1秒),canvas.Screen,10_12_1,2023-01-15T12:16:05.268Z,,,d,,,315,849.1730000000098,timeout,d.jpg,,,306300.2999997139,306299.89999961853,305459.59999990463,305459.7999997139,305291.127,306140.3,
空白時間2 (0.5秒),canvas.Screen,10_12_2,2023-01-15T12:16:05.627Z,,,d,,,315,349.88300000003073,timeout,d.jpg,,,306659.59999990463,306659.19999980927,306299.89999961853,306300.5,306140.3,306490.183,
刺激提示,canvas.Screen,10_12_3,2023-01-15T12:16:06.172Z,,,d,true,d,315,713.7169996185112,response,d.jpg,d,keypress(j),307204.89999961853,307203.89999961853,306659.19999980927,306660,306490.183,307056.079,
フィードバック(0.5秒),canvas.Screen,10_12_4,2023-01-15T12:16:06.539Z,,,d,,,315,349.8269999999902,timeout,d.jpg,,,307571.89999961853,307571.59999990463,307039.992,307209.39999961853,307056.079,307405.906,
トライアル,flow.Sequence,10_12,2023-01-15T12:16:06.540Z,,,d,,,315,2630.0749999046093,completion,d.jpg,,,307572.2999997139,307571.59999990463,305107.59999990463,305108.59999990463,304941.525,307405.906,
空白時間1 (0.5秒),canvas.Screen,10_13_0,2023-01-15T12:16:06.892Z,,,b,,,225,349.90200000000186,timeout,b.jpg,,,307924.2999997139,307924.09999990463,307571.59999990463,307572.5,307405.906,307755.808,
注視(1秒),canvas.Screen,10_13_1,2023-01-15T12:16:07.731Z,,,b,,,225,849.1329999999725,timeout,b.jpg,,,308764,308763.59999990463,307924.09999990463,307924.5,307755.808,308604.941,
空白時間2 (0.5秒),canvas.Screen,10_13_2,2023-01-15T12:16:08.091Z,,,b,,,225,349.55200000002515,timeout,b.jpg,,,309123.39999961853,309123.2999997139,308763.59999990463,308764.2999997139,308604.941,308954.493,
刺激提示,canvas.Screen,10_13_3,2023-01-15T12:16:09.353Z,,,b,false,b,225,1430.1069999046158,response,b.jpg,d,keypress(j),310385.59999990463,310384.59999990463,309123.2999997139,309123.59999990463,308954.493,310253.27,
フィードバック(0.5秒),canvas.Screen,10_13_4,2023-01-15T12:16:09.740Z,,,b,,,225,349.8090000000084,timeout,b.jpg,,,310772.59999990463,310772.2999997139,310237.179,310407.2999997139,310253.27,310603.079,
トライアル,flow.Sequence,10_13,2023-01-15T12:16:09.740Z,,,b,,,225,3366.3939997138805,completion,b.jpg,,,310773,310772.2999997139,307571.59999990463,307572.39999961853,307405.906,310603.079,
空白時間1 (0.5秒),canvas.Screen,10_14_0,2023-01-15T12:16:10.091Z,,,b,,,0,349.72199999995064,timeout,b.jpg,,,311124,311123.7999997139,310772.2999997139,310773.39999961853,310603.079,310952.801,
注視(1秒),canvas.Screen,10_14_1,2023-01-15T12:16:10.931Z,,,b,,,0,849.4010000000126,timeout,b.jpg,,,311963.19999980927,311963,311123.7999997139,311124.19999980927,310952.801,311802.202,
空白時間2 (0.5秒),canvas.Screen,10_14_2,2023-01-15T12:16:11.284Z,,,b,,,0,349.4799999999814,timeout,b.jpg,,,312317,312316.59999990463,311963,311963.39999961853,311802.202,312151.682,
刺激提示,canvas.Screen,10_14_3,2023-01-15T12:16:11.790Z,,,b,true,b,0,670.7179996185587,response,b.jpg,b,keypress(f),312823,312822.39999961853,312316.59999990463,312317.2999997139,312151.682,312667.902,
フィードバック(0.5秒),canvas.Screen,10_14_4,2023-01-15T12:16:12.156Z,,,b,,,0,349.92499999998836,timeout,b.jpg,,,313188.2999997139,313187.89999961853,312651.92,312823.89999961853,312667.902,313017.827,
トライアル,flow.Sequence,10_14,2023-01-15T12:16:12.156Z,,,b,,,0,2584.8209996185033,completion,b.jpg,,,313188.5,313187.89999961853,310772.2999997139,310773.19999980927,310603.079,313017.827,
空白時間1 (0.5秒),canvas.Screen,10_15_0,2023-01-15T12:16:12.627Z,,,d,,,270,499.3640000000014,timeout,d.jpg,,,313659.39999961853,313500.607,313187.89999961853,313188.7999997139,313017.827,313517.191,
注視(1秒),canvas.Screen,10_15_1,2023-01-15T12:16:13.491Z,,,d,,,270,832.6110000000335,timeout,d.jpg,,,314523.59999990463,314523.5,313500.607,313659.69999980927,313517.191,314349.802,
空白時間2 (0.5秒),canvas.Screen,10_15_2,2023-01-15T12:16:13.836Z,,,d,,,270,349.65099999995437,timeout,d.jpg,,,314868.09999990463,314867.89999961853,314523.5,314523.69999980927,314349.802,314699.453,
刺激提示,canvas.Screen,10_15_3,2023-01-15T12:16:14.677Z,,,d,true,d,270,1009.8469997139182,response,d.jpg,d,keypress(j),315709.7999997139,315709.2999997139,314867.89999961853,314868.2999997139,314699.453,315565.315,
フィードバック(0.5秒),canvas.Screen,10_15_4,2023-01-15T12:16:15.051Z,,,d,,,270,349.7380000000121,timeout,d.jpg,,,316083.2999997139,316083.09999990463,315548.705,315720.69999980927,315565.315,315915.053,
トライアル,flow.Sequence,10_15,2023-01-15T12:16:15.051Z,,,d,,,270,3065.2729999046423,completion,d.jpg,,,316083.5,316083.09999990463,313187.89999961853,313188.69999980927,313017.827,315915.053,
タスクのセット,flow.Loop,10,2023-01-15T12:16:15.051Z,,,,,,,46344.25399990461,completion,,,,316083.59999990463,316083.09999990463,269907.59999990463,269909,269738.846,315915.053,
休憩,canvas.Screen,11,2023-01-15T12:17:14.898Z,,,,,,,59864.44199999998,timeout,,,,375931.19999980927,375931.09999990463,316083.09999990463,316083.59999990463,315915.053,375779.495,
休憩終了,html.Page,12,2023-01-15T12:17:33.793Z,,,,,,,19046.104999904637,form submission,,,,394825.7999997139,394825.59999990463,375931.09999990463,375931.2999997139,375779.495,394663.024,
イントロ2,html.Page,13,2023-01-15T12:17:38.193Z,,,,,,,4562.175999809289,form submission,,,,399225.5,399225.19999980927,394646.44,394825.89999961853,394663.024,399075.883,
イントロ3,html.Page,14,2023-01-15T12:17:41.212Z,,,,,,,3169.3169998092926,form submission,,,,402245.2999997139,402245.19999980927,399059.416,399225.69999980927,399075.883,402089.898,
イントロ4,html.Page,15,2023-01-15T12:17:42.338Z,,,,,,,1280.6020000000135,form submission,,,,403370.59999990463,403370.5,402073.25,402245.5,402089.898,403239.331,
イントロ5,html.Page,16,2023-01-15T12:17:43.852Z,,,,,,,1645.9689997138921,form submission,,,,404885.5,404885.2999997139,403222.5,403370.69999980927,403239.331,404737.643,
空白時間1 (0.5秒),canvas.Screen,17_0_0,2023-01-15T12:17:44.219Z,,,d,,,180,349.8040000000037,timeout,2R.jpg,,,405252,405251.69999980927,404721.432,404885.69999980927,404737.643,405087.447,
注視(1秒),canvas.Screen,17_0_1,2023-01-15T12:17:45.067Z,,,d,,,180,849.1240000000107,timeout,2R.jpg,,,406099.89999961853,406099.69999980927,405251.69999980927,405253.09999990463,405087.447,405936.571,
空白時間2 (0.5秒),canvas.Screen,17_0_2,2023-01-15T12:17:45.545Z,,,d,,,180,499.50699999998324,timeout,2R.jpg,,,406577.89999961853,406419.499,406099.69999980927,406099.89999961853,405936.571,406436.078,
刺激提示,canvas.Screen,17_0_3,2023-01-15T12:17:47.493Z,,,d,true,d,180,2089.221999713918,response,2R.jpg,d,keypress(j),408526.09999990463,408525.2999997139,406419.499,406577.89999961853,406436.078,408384.357,
フィードバック(0.5秒),canvas.Screen,17_0_4,2023-01-15T12:17:47.867Z,,,d,,,180,349.7829999999958,timeout,2R.jpg,,,408899.89999961853,408899.39999961853,408367.691,408541.5,408384.357,408734.14,
トライアル,flow.Sequence,17_0,2023-01-15T12:17:47.867Z,,,d,,,180,4161.756999618548,completion,2R.jpg,,,408900.39999961853,408899.39999961853,404721.432,404885.59999990463,404737.643,408734.14,
空白時間1 (0.5秒),canvas.Screen,17_1_0,2023-01-15T12:17:48.219Z,,,b,,,225,349.8420000000042,timeout,2.jpg,,,409251.59999990463,409251.19999980927,408899.39999961853,408900.59999990463,408734.14,409083.982,
注視(1秒),canvas.Screen,17_1_1,2023-01-15T12:17:49.060Z,,,b,,,225,849.1849999999977,timeout,2.jpg,,,410092.59999990463,410092.39999961853,409251.19999980927,409251.7999997139,409083.982,409933.167,
空白時間2 (0.5秒),canvas.Screen,17_1_2,2023-01-15T12:17:49.419Z,,,b,,,225,349.6240000000107,timeout,2.jpg,,,410452.19999980927,410452,410092.39999961853,410092.89999961853,409933.167,410282.791,
刺激提示,canvas.Screen,17_1_3,2023-01-15T12:17:50.536Z,,,b,false,b,225,1284.5089997138712,response,2.jpg,d,keypress(j),411568.5,411567.2999997139,410452,410452.5,410282.791,411415.095,
フィードバック(0.5秒),canvas.Screen,17_1_4,2023-01-15T12:17:50.898Z,,,b,,,225,349.7290000000503,timeout,2.jpg,,,411931.5,411931,411398.783,411570.7999997139,411415.095,411764.824,
トライアル,flow.Sequence,17_1,2023-01-15T12:17:50.899Z,,,b,,,225,3196.859999999986,completion,2.jpg,,,411931.7999997139,411931,408899.39999961853,408900.59999990463,408734.14,411764.824,
空白時間1 (0.5秒),canvas.Screen,17_2_0,2023-01-15T12:17:51.250Z,,,b,,,180,349.6449999999604,timeout,2.jpg,,,412283.09999990463,412282.7999997139,411931,411932.09999990463,411764.824,412114.469,
注視(1秒),canvas.Screen,17_2_1,2023-01-15T12:17:52.091Z,,,b,,,180,849.6450000000186,timeout,2.jpg,,,413123.5,413123.39999961853,412282.7999997139,412283.2999997139,412114.469,412964.114,
空白時間2 (0.5秒),canvas.Screen,17_2_2,2023-01-15T12:17:52.450Z,,,b,,,180,349.3080000000191,timeout,2.jpg,,,413483.39999961853,413483.19999980927,413123.39999961853,413123.59999990463,412964.114,413313.422,
刺激提示,canvas.Screen,17_2_3,2023-01-15T12:17:54.608Z,,,b,false,b,180,2326.5779999999795,response,2.jpg,d,keypress(j),415641,415640,413483.19999980927,413483.5,413313.422,415511.955,
フィードバック(0.5秒),canvas.Screen,17_2_4,2023-01-15T12:17:54.996Z,,,b,,,180,349.6219999999739,timeout,2.jpg,,,416029.09999990463,416028.69999980927,415495.189,415655.39999961853,415511.955,415861.577,
トライアル,flow.Sequence,17_2,2023-01-15T12:17:54.997Z,,,b,,,180,4263.875999809243,completion,2.jpg,,,416029.59999990463,416028.69999980927,411931,411932,411764.824,415861.577,
空白時間1 (0.5秒),canvas.Screen,17_3_0,2023-01-15T12:17:55.347Z,,,b,,,270,349.48399999999674,timeout,2.jpg,,,416379.89999961853,416379.59999990463,416028.69999980927,416029.7999997139,415861.577,416211.061,
注視(1秒),canvas.Screen,17_3_1,2023-01-15T12:17:56.187Z,,,b,,,270,849.1969999999856,timeout,2.jpg,,,417220,417219.69999980927,416379.59999990463,416380,416211.061,417060.258,
空白時間2 (0.5秒),canvas.Screen,17_3_2,2023-01-15T12:17:56.547Z,,,b,,,270,350.03000000002794,timeout,2.jpg,,,417579.69999980927,417579.39999961853,417219.69999980927,417220.19999980927,417060.258,417410.288,
刺激提示,canvas.Screen,17_3_3,2023-01-15T12:17:57.528Z,,,b,true,b,270,1149.9119998092647,response,2.jpg,b,keypress(f),418561,418560.19999980927,417579.39999961853,417580,417410.288,418409.097,
フィードバック(0.5秒),canvas.Screen,17_3_4,2023-01-15T12:17:57.891Z,,,b,,,270,349.6240000000107,timeout,2.jpg,,,418923.59999990463,418923.39999961853,418392.335,418563.19999980927,418409.097,418758.721,
トライアル,flow.Sequence,17_3,2023-01-15T12:17:57.891Z,,,b,,,270,3061.82299961854,completion,2.jpg,,,418923.7999997139,418923.39999961853,416028.69999980927,416029.7999997139,415861.577,418758.721,
空白時間1 (0.5秒),canvas.Screen,17_4_0,2023-01-15T12:17:58.243Z,,,b,,,90,349.6819999999716,timeout,2.jpg,,,419275.69999980927,419275.39999961853,418923.39999961853,418923.7999997139,418758.721,419108.403,
