sender_type,sender_id,timestamp,meta,,answer,correct,correctResponse,deg,duration,ended_on,image,response,response_action,time_commit,time_end,time_render,time_run,time_show,time_switch,url
html.Page,0,2023-01-14T04:12:52.084Z,"{""labjs_version"":""20.2.4"",""labjs_build"":{""flavor"":""development"",""commit"":""f5b4a49f956347addd546a832a3327688c2c0fef""},""location"":""https://labjs.felixhenninger.com/api/labjs_preview/index.html"",""userAgent"":""Mozilla/5.0 (Windows NT 10.0; Win64; x64) AppleWebKit/537.36 (KHTML, like Gecko) Chrome/108.0.0.0 Safari/537.36"",""platform"":""Win32"",""language"":""ja-JP"",""locale"":""ja"",""timeZone"":""Etc/GMT-9"",""timezoneOffset"":-540,""screen_width"":1280,""screen_height"":720,""scroll_width"":880,""scroll_height"":760,""window_innerWidth"":880,""window_innerHeight"":808,""devicePixelRatio"":1.125}",,,,,,1566.241,form submission,,,,2303.8,2303.5,520.603,828.9,737.259,2220.348,{}
html.Page,1,2023-01-14T04:12:52.667Z,,,,,,,666.752,form submission,,,,2887.2,2887.1,2203.874,2304,2220.348,2803.714,
html.Page,2,2023-01-14T04:12:53.432Z,,,,,,,847.986,form submission,,,,3651.9,3651.7,2787.319,2887.3,2803.714,3570.264,
html.Page,3,2023-01-14T04:12:53.938Z,,,,,,,587.836,form submission,,,,4158.2,4158.1,3553.741,3651.9,3570.264,4070.164,
html.Page,4,2023-01-14T04:12:55.143Z,,,,,,,1292.436,form submission,,,,5362.7,5362.6,4053.953,4158.3,4070.164,5269.944,
canvas.Screen,5,2023-01-14T04:12:56.130Z,,,,,,,999.923,timeout,,,,6350,6253.413,5253.793,5362.9,5269.944,6269.867,
canvas.Screen,6_0_0,2023-01-14T04:12:56.629Z,,,d,,,315,499.998,timeout,eR.jpg,,,6848.6,6753.387,6253.413,6350.3,6269.867,6769.865,
canvas.Screen,6_0_1,2023-01-14T04:12:57.629Z,,,d,,,315,999.779,timeout,eR.jpg,,,7848.6,7753.244,6753.387,6848.9,6769.865,7769.644,
canvas.Screen,6_0_2,2023-01-14T04:12:58.128Z,,,d,,,315,499.912,timeout,eR.jpg,,,8347.7,8253.022,7753.244,7848.7,7769.644,8269.556,
canvas.Screen,6_0_3,2023-01-14T04:13:00.288Z,,,d,TRUE,d,315,2237.444,response,eR.jpg,d,keypress(j),10507.7,10507,8253.022,8347.8,8269.556,10419.276,
canvas.Screen,6_0_4,2023-01-14T04:13:00.778Z,,,d,,,315,500.022,timeout,eR.jpg,,,10998.3,10902.914,10402.493,10508.8,10419.276,10919.298,
flow.Sequence,6_0,2023-01-14T04:13:00.779Z,,,d,,,315,4633.047,completion,eR.jpg,,,10998.9,10902.914,6253.413,6350.3,6269.867,10919.298,
canvas.Screen,6_1_0,2023-01-14T04:13:01.278Z,,,b,,,180,499.944,timeout,e.jpg,,,11498.1,11402.673,10902.914,10999.1,10919.298,11419.242,
canvas.Screen,6_1_1,2023-01-14T04:13:02.278Z,,,b,,,180,999.865,timeout,e.jpg,,,12498,12402.724,11402.673,11498.4,11419.242,12419.107,
canvas.Screen,6_1_2,2023-01-14T04:13:02.778Z,,,b,,,180,500.023,timeout,e.jpg,,,12998,12902.75,12402.724,12498.3,12419.107,12919.13,
canvas.Screen,6_1_3,2023-01-14T04:13:04.379Z,,,b,TRUE,b,180,1679.17,response,e.jpg,b,keypress(f),14599.4,14598.3,12902.75,12998.3,12919.13,14518.85,
canvas.Screen,6_1_4,2023-01-14T04:13:04.878Z,,,b,,,180,499.881,timeout,e.jpg,,,15097.6,15002.24,14502.727,14608.1,14518.85,15018.731,
flow.Sequence,6_1,2023-01-14T04:13:04.878Z,,,b,,,180,4082.942,completion,e.jpg,,,15098,15002.24,10902.914,10999.1,10919.298,15018.731,
canvas.Screen,6_2_0,2023-01-14T04:13:05.378Z,,,b,,,270,500.095,timeout,e.jpg,,,15598.4,15502.016,15002.24,15098.2,15018.731,15518.826,
canvas.Screen,6_2_1,2023-01-14T04:13:06.377Z,,,b,,,270,999.759,timeout,e.jpg,,,16597.4,16502.227,15502.016,15598.6,15518.826,16518.585,
canvas.Screen,6_2_2,2023-01-14T04:13:06.877Z,,,b,,,270,499.976,timeout,e.jpg,,,17097.4,17002.114,16502.227,16597.6,16518.585,17018.561,
canvas.Screen,6_2_3,2023-01-14T04:13:07.469Z,,,b,TRUE,b,270,669.639,response,e.jpg,b,keypress(f),17689.2,17688.2,17002.114,17097.6,17018.561,17601.72,
canvas.Screen,6_2_4,2023-01-14T04:13:07.961Z,,,b,,,270,499.951,timeout,e.jpg,,,18180.9,18085.605,17584.979,17692.3,17601.72,18101.671,
flow.Sequence,6_2,2023-01-14T04:13:07.961Z,,,b,,,270,3066.874,completion,e.jpg,,,18181.3,18085.605,15002.24,15098.1,15018.731,18101.671,
canvas.Screen,6_3_0,2023-01-14T04:13:08.461Z,,,d,,,135,500.074,timeout,eR.jpg,,,18680.6,18585.511,18085.605,18181.5,18101.671,18601.745,
canvas.Screen,6_3_1,2023-01-14T04:13:09.460Z,,,d,,,135,999.842,timeout,eR.jpg,,,19680.3,19584.997,18585.511,18680.9,18601.745,19601.587,
canvas.Screen,6_3_2,2023-01-14T04:13:09.960Z,,,d,,,135,500.026,timeout,eR.jpg,,,20180.2,20084.933,19584.997,19680.5,19601.587,20101.613,
canvas.Screen,6_3_3,2023-01-14T04:13:10.854Z,,,d,TRUE,d,135,971.487,response,eR.jpg,d,keypress(j),21073.8,21073.1,20084.933,20180.5,20101.613,21001.328,
canvas.Screen,6_3_4,2023-01-14T04:13:11.360Z,,,d,,,135,500.054,timeout,eR.jpg,,,21579.9,21484.688,20984.739,21079.1,21001.328,21501.382,
flow.Sequence,6_3,2023-01-14T04:13:11.360Z,,,d,,,135,3383.017,completion,eR.jpg,,,21580.4,21484.688,18085.605,18181.4,18101.671,21501.382,
flow.Loop,6,2023-01-14T04:13:11.361Z,,,,,,,15214.821,completion,,,,21580.6,21484.688,6253.413,6350.2,6269.867,21501.382,
html.Page,7,2023-01-14T04:13:14.938Z,,,,,,,3656.818,form submission,,,,25158.4,25158.2,21484.688,21580.8,21501.382,25067.679,
canvas.Screen,8,2023-01-14T04:13:15.926Z,,,,,,,999.615,timeout,,,,26146,26050.791,25051.095,25158.5,25067.679,26067.294,
canvas.Screen,9_0_0,2023-01-14T04:13:16.426Z,,,d,,,0,500.034,timeout,eR.jpg,,,26646.1,26550.847,26050.791,26146.4,26067.294,26567.328,
canvas.Screen,9_0_1,2023-01-14T04:13:17.426Z,,,d,,,0,999.92,timeout,eR.jpg,,,27645.9,27550.716,26550.847,26646.4,26567.328,27567.248,
canvas.Screen,9_0_2,2023-01-14T04:13:17.926Z,,,d,,,0,499.922,timeout,eR.jpg,,,28145.9,28050.654,27550.716,27646.1,27567.248,28067.17,
canvas.Screen,9_0_3,2023-01-14T04:13:18.885Z,,,d,TRUE,d,0,1037.33,response,eR.jpg,d,keypress(j),29105.3,29104.5,28050.654,28146.1,28067.17,29016.825,
canvas.Screen,9_0_4,2023-01-14T04:13:19.376Z,,,d,,,0,499.983,timeout,eR.jpg,,,29595.8,29500.476,29000.225,29112.5,29016.825,29516.808,
flow.Sequence,9_0,2023-01-14T04:13:19.376Z,,,d,,,0,3433.182,completion,eR.jpg,,,29596.1,29500.476,26050.791,26146.3,26067.294,29516.808,
canvas.Screen,9_1_0,2023-01-14T04:13:19.875Z,,,b,,,135,500.067,timeout,e.jpg,,,30094.8,30000.199,29500.476,29596.2,29516.808,30016.875,
canvas.Screen,9_1_1,2023-01-14T04:13:20.875Z,,,b,,,135,999.815,timeout,e.jpg,,,31095.4,31000.13,30000.199,30094.9,30016.875,31016.69,
canvas.Screen,9_1_2,2023-01-14T04:13:21.375Z,,,b,,,135,499.838,timeout,e.jpg,,,31595.5,31500.23,31000.13,31095.6,31016.69,31516.528,
canvas.Screen,9_1_3,2023-01-14T04:13:21.947Z,,,b,TRUE,b,135,649.172,response,e.jpg,b,keypress(f),32166.9,32165.7,31500.23,31595.6,31516.528,32083.109,
canvas.Screen,9_1_4,2023-01-14T04:13:22.442Z,,,b,,,135,499.922,timeout,e.jpg,,,32661.7,32566.558,32066.599,32174.1,32083.109,32583.031,
flow.Sequence,9_1,2023-01-14T04:13:22.442Z,,,b,,,135,3049.75,completion,e.jpg,,,32662.2,32566.558,29500.476,29596.2,29516.808,32583.031,
canvas.Screen,9_2_0,2023-01-14T04:13:22.942Z,,,b,,,270,499.975,timeout,e.jpg,,,33161.6,33066.445,32566.558,32662.4,32583.031,33083.006,
canvas.Screen,9_2_1,2023-01-14T04:13:23.941Z,,,b,,,270,999.914,timeout,e.jpg,,,34161.3,34066.343,33066.445,33161.8,33083.006,34082.92,
canvas.Screen,9_2_2,2023-01-14T04:13:24.441Z,,,b,,,270,499.936,timeout,e.jpg,,,34661.3,34566.233,34066.343,34161.4,34082.92,34582.856,
canvas.Screen,9_2_3,2023-01-14T04:13:25.346Z,,,b,TRUE,b,270,982.244,response,e.jpg,b,keypress(f),35566.1,35565.1,34566.233,34661.6,34582.856,35482.668,
canvas.Screen,9_2_4,2023-01-14T04:13:25.841Z,,,b,,,270,500.167,timeout,e.jpg,,,36061.2,35966.075,35466.549,35567.5,35482.668,35982.835,
flow.Sequence,9_2,2023-01-14T04:13:25.842Z,,,b,,,270,3383.044,completion,e.jpg,,,36061.5,35966.075,32566.558,32662.4,32583.031,35982.835,
canvas.Screen,9_3_0,2023-01-14T04:13:26.341Z,,,b,,,315,499.928,timeout,e.jpg,,,36561.3,36466.133,35966.075,36061.7,35982.835,36482.763,
canvas.Screen,9_3_1,2023-01-14T04:13:27.341Z,,,b,,,315,999.759,timeout,e.jpg,,,37560.9,37465.852,36466.133,36561.4,36482.763,37482.522,
canvas.Screen,9_3_2,2023-01-14T04:13:27.841Z,,,b,,,315,500.073,timeout,e.jpg,,,38061.1,37965.833,37465.852,37561.3,37482.522,37982.595,
canvas.Screen,9_3_3,2023-01-14T04:13:28.889Z,,,b,TRUE,b,315,1125.905,response,e.jpg,b,keypress(f),39109.4,39108.5,37965.833,38061.3,37982.595,39032.393,
canvas.Screen,9_3_4,2023-01-14T04:13:29.391Z,,,b,,,315,499.942,timeout,e.jpg,,,39610.7,39515.631,39016.035,39120.5,39032.393,39532.335,
flow.Sequence,9_3,2023-01-14T04:13:29.391Z,,,b,,,315,3532.796,completion,e.jpg,,,39611,39515.631,35966.075,36061.7,35982.835,39532.335,
canvas.Screen,9_4_0,2023-01-14T04:13:29.891Z,,,d,,,315,499.968,timeout,eR.jpg,,,40110.9,40015.565,39515.631,39611.2,39532.335,40032.303,
canvas.Screen,9_4_1,2023-01-14T04:13:30.891Z,,,d,,,315,999.734,timeout,eR.jpg,,,41110.7,41015.566,40015.565,40111.2,40032.303,41032.037,
canvas.Screen,9_4_2,2023-01-14T04:13:31.391Z,,,d,,,315,500.023,timeout,eR.jpg,,,41610.8,41515.609,41015.566,41110.8,41032.037,41532.06,
canvas.Screen,9_4_3,2023-01-14T04:13:32.658Z,,,d,TRUE,d,315,1344.64,response,eR.jpg,d,keypress(j),42877.7,42876.7,41515.609,41611,41532.06,42798.402,
canvas.Screen,9_4_4,2023-01-14T04:13:33.159Z,,,d,,,315,499.907,timeout,eR.jpg,,,43379.2,43281.838,42781.743,42888.9,42798.402,43298.309,
flow.Sequence,9_4,2023-01-14T04:13:33.160Z,,,d,,,315,3749.503,completion,eR.jpg,,,43379.5,43281.838,39515.631,39611.1,39532.335,43298.309,
canvas.Screen,9_5_0,2023-01-14T04:13:33.657Z,,,b,,,225,500,timeout,e.jpg,,,43877,43781.91,43281.838,43379.7,43298.309,43798.309,
canvas.Screen,9_5_1,2023-01-14T04:13:34.657Z,,,b,,,225,1000.216,timeout,e.jpg,,,44876.8,44781.727,43781.91,43877.3,43798.309,44798.525,
canvas.Screen,9_5_2,2023-01-14T04:13:35.157Z,,,b,,,225,499.755,timeout,e.jpg,,,45376.7,45281.585,44781.727,44877,44798.525,45298.28,
canvas.Screen,9_5_3,2023-01-14T04:13:36.117Z,,,b,TRUE,b,225,1037.72,response,e.jpg,b,keypress(f),46336.8,46336,45281.585,45376.9,45298.28,46264.568,
canvas.Screen,9_5_4,2023-01-14T04:13:36.623Z,,,b,,,225,500.115,timeout,e.jpg,,,46843.2,46748.015,46248.505,46347.1,46264.568,46764.683,
flow.Sequence,9_5,2023-01-14T04:13:36.624Z,,,b,,,225,3449.706,completion,e.jpg,,,46843.5,46748.015,43281.838,43379.6,43298.309,46764.683,
canvas.Screen,9_6_0,2023-01-14T04:13:37.123Z,,,b,,,180,499.739,timeout,e.jpg,,,47343.2,47247.992,46748.015,46843.7,46764.683,47264.422,
canvas.Screen,9_6_1,2023-01-14T04:13:38.123Z,,,b,,,180,1000.029,timeout,e.jpg,,,48342.9,48247.81,47247.992,47343.5,47264.422,48264.451,
canvas.Screen,9_6_2,2023-01-14T04:13:38.623Z,,,b,,,180,499.97,timeout,e.jpg,,,48843,48747.833,48247.81,48343,48264.451,48764.421,
canvas.Screen,9_6_3,2023-01-14T04:13:39.984Z,,,b,TRUE,b,180,1439.079,response,e.jpg,b,keypress(f),50204.4,50203.5,48747.833,48843.3,48764.421,50130.71,
canvas.Screen,9_6_4,2023-01-14T04:13:40.490Z,,,b,,,180,499.969,timeout,e.jpg,,,50709.5,50614.227,50114.536,50215.1,50130.71,50630.679,
flow.Sequence,9_6,2023-01-14T04:13:40.490Z,,,b,,,180,3849.544,completion,e.jpg,,,50709.8,50614.227,46748.015,46843.6,46764.683,50630.679,
canvas.Screen,9_7_0,2023-01-14T04:13:40.989Z,,,d,,,90,500.111,timeout,eR.jpg,,,51209.5,51114.163,50614.227,50710,50630.679,51130.79,
canvas.Screen,9_7_1,2023-01-14T04:13:41.989Z,,,d,,,90,999.813,timeout,eR.jpg,,,52209.4,52114.139,51114.163,51209.6,51130.79,52130.603,
canvas.Screen,9_7_2,2023-01-14T04:13:42.489Z,,,d,,,90,499.774,timeout,eR.jpg,,,52709.3,52613.999,52114.139,52209.6,52130.603,52630.377,
canvas.Screen,9_7_3,2023-01-14T04:13:44.046Z,,,d,TRUE,d,90,1635.523,response,eR.jpg,d,keypress(j),54266.3,54265.9,52613.999,52709.5,52630.377,54180.313,
canvas.Screen,9_7_4,2023-01-14T04:13:44.539Z,,,d,,,90,499.983,timeout,eR.jpg,,,54759.1,54663.798,54163.678,54271.6,54180.313,54680.296,
flow.Sequence,9_7,2023-01-14T04:13:44.539Z,,,d,,,90,4033.119,completion,eR.jpg,,,54759.3,54663.798,50614.227,50709.9,50630.679,54680.296,
canvas.Screen,9_8_0,2023-01-14T04:13:45.039Z,,,d,,,45,499.85,timeout,eR.jpg,,,55258.9,55163.632,54663.798,54759.5,54680.296,55180.146,
canvas.Screen,9_8_1,2023-01-14T04:13:46.038Z,,,d,,,45,999.761,timeout,eR.jpg,,,56258,56163.315,55163.632,55259.1,55180.146,56179.907,
canvas.Screen,9_8_2,2023-01-14T04:13:46.538Z,,,d,,,45,500.019,timeout,eR.jpg,,,56757.8,56663.166,56163.315,56258,56179.907,56679.926,
canvas.Screen,9_8_3,2023-01-14T04:13:48.546Z,,,d,TRUE,d,45,2084.174,response,eR.jpg,d,keypress(j),58765.1,58764.1,56663.166,56757.9,56679.926,58696.382,
canvas.Screen,9_8_4,2023-01-14T04:13:49.056Z,,,d,,,45,499.996,timeout,eR.jpg,,,59275.1,59179.785,58679.732,58775.5,58696.382,59196.378,
flow.Sequence,9_8,2023-01-14T04:13:49.056Z,,,d,,,45,4499.489,completion,eR.jpg,,,59275.5,59179.785,54663.798,54759.5,54680.296,59196.378,
canvas.Screen,9_9_0,2023-01-14T04:13:49.556Z,,,b,,,0,499.848,timeout,e.jpg,,,59774.9,59679.722,59179.785,59275.6,59196.378,59696.226,
canvas.Screen,9_9_1,2023-01-14T04:13:50.556Z,,,b,,,0,999.892,timeout,e.jpg,,,60774.8,60679.66,59679.722,59775.1,59696.226,60696.118,
canvas.Screen,9_9_2,2023-01-14T04:13:51.055Z,,,b,,,0,500.067,timeout,e.jpg,,,61274.8,61179.534,60679.66,60775,60696.118,61196.185,
canvas.Screen,9_9_3,2023-01-14T04:13:53.357Z,,,b,TRUE,b,0,2379.215,response,e.jpg,b,keypress(f),63576.6,63575.4,61179.534,61275,61196.185,63495.69,
canvas.Screen,9_9_4,2023-01-14T04:13:53.855Z,,,b,,,0,500.043,timeout,e.jpg,,,64074.4,63979.237,63478.686,63587.3,63495.69,63995.733,
flow.Sequence,9_9,2023-01-14T04:13:53.855Z,,,b,,,0,4782.859,completion,e.jpg,,,64074.7,63979.237,59179.785,59275.6,59196.378,63995.733,
canvas.Screen,9_10_0,2023-01-14T04:13:54.355Z,,,d,,,180,499.893,timeout,eR.jpg,,,64574.2,64478.996,63979.237,64074.9,63995.733,64495.626,
canvas.Screen,9_10_1,2023-01-14T04:13:55.355Z,,,d,,,180,1000.065,timeout,eR.jpg,,,65574.2,65478.967,64478.996,64574.4,64495.626,65495.691,
canvas.Screen,9_10_2,2023-01-14T04:13:55.855Z,,,d,,,180,499.567,timeout,eR.jpg,,,66074.1,65978.91,65478.967,65574.3,65495.691,65995.258,
canvas.Screen,9_10_3,2023-01-14T04:13:57.268Z,,,d,TRUE,d,180,1491.342,response,eR.jpg,d,keypress(j),67487.2,67486.6,65978.91,66074.3,65995.258,67411.885,
canvas.Screen,9_10_4,2023-01-14T04:13:57.771Z,,,d,,,180,499.978,timeout,eR.jpg,,,67990.7,67895.47,67395.982,67495.3,67411.885,67911.863,
flow.Sequence,9_10,2023-01-14T04:13:57.772Z,,,d,,,180,3899.737,completion,eR.jpg,,,67991,67895.47,63979.237,64074.8,63995.733,67911.863,
canvas.Screen,9_11_0,2023-01-14T04:13:58.271Z,,,b,,,45,499.942,timeout,e.jpg,,,68490.6,68395.566,67895.47,67991.1,67911.863,68411.805,
canvas.Screen,9_11_1,2023-01-14T04:13:59.271Z,,,b,,,45,999.892,timeout,e.jpg,,,69490.6,69395.464,68395.566,68490.8,68411.805,69411.697,
canvas.Screen,9_11_2,2023-01-14T04:13:59.771Z,,,b,,,45,499.821,timeout,e.jpg,,,69990.4,69895.273,69395.464,69490.8,69411.697,69911.518,
canvas.Screen,9_11_3,2023-01-14T04:14:01.197Z,,,b,TRUE,b,45,1503.882,response,e.jpg,b,keypress(f),71415.9,71415.4,69895.273,69990.6,69911.518,71344.991,
canvas.Screen,9_11_4,2023-01-14T04:14:01.704Z,,,b,,,45,499.559,timeout,e.jpg,,,71923.4,71828.058,71312.245,71421.7,71344.991,71844.55,
flow.Sequence,9_11,2023-01-14T04:14:01.704Z,,,b,,,45,3916.195,completion,e.jpg,,,71923.6,71828.058,67895.47,67991.1,67911.863,71844.55,
canvas.Screen,9_12_0,2023-01-14T04:14:02.204Z,,,d,,,225,500.069,timeout,eR.jpg,,,72423.1,72328.097,71828.058,71923.8,71844.55,72344.619,
canvas.Screen,9_12_1,2023-01-14T04:14:03.204Z,,,d,,,225,999.845,timeout,eR.jpg,,,73423.1,73327.981,72328.097,72423.3,72344.619,73344.464,
canvas.Screen,9_12_2,2023-01-14T04:14:03.704Z,,,d,,,225,500.039,timeout,eR.jpg,,,73922.9,73827.745,73327.981,73423.3,73344.464,73844.503,
canvas.Screen,9_12_3,2023-01-14T04:14:06.295Z,,,d,TRUE,d,225,2668.097,response,eR.jpg,d,keypress(j),76514,76512.6,73827.745,73923.1,73844.503,76444.013,
canvas.Screen,9_12_4,2023-01-14T04:14:06.803Z,,,d,,,225,499.967,timeout,eR.jpg,,,77022.6,76927.301,76427.188,76525.4,76444.013,76943.98,
flow.Sequence,9_12,2023-01-14T04:14:06.804Z,,,d,,,225,5082.751,completion,eR.jpg,,,77022.9,76927.301,71828.058,71923.8,71844.55,76943.98,
canvas.Screen,9_13_0,2023-01-14T04:14:07.303Z,,,d,,,135,499.839,timeout,eR.jpg,,,77522.4,77427.288,76927.301,77023.1,76943.98,77443.819,
canvas.Screen,9_13_1,2023-01-14T04:14:08.303Z,,,d,,,135,1000.032,timeout,eR.jpg,,,78522.2,78427.029,77427.288,77522.7,77443.819,78443.851,
canvas.Screen,9_13_2,2023-01-14T04:14:08.803Z,,,d,,,135,499.933,timeout,eR.jpg,,,79022.2,78927.04,78427.029,78522.3,78443.851,78943.784,
canvas.Screen,9_13_3,2023-01-14T04:14:11.629Z,,,d,TRUE,d,135,2903.916,response,eR.jpg,d,keypress(j),81848.8,81847.7,78927.04,79022.4,78943.784,81776.618,
canvas.Screen,9_13_4,2023-01-14T04:14:12.136Z,,,d,,,135,500.017,timeout,eR.jpg,,,82355.4,82260.082,81760.147,81860.1,81776.618,82276.635,
flow.Sequence,9_13,2023-01-14T04:14:12.136Z,,,d,,,135,5316.102,completion,eR.jpg,,,82355.6,82260.082,76927.301,77023,76943.98,82276.635,
canvas.Screen,9_14_0,2023-01-14T04:14:12.636Z,,,d,,,270,499.937,timeout,eR.jpg,,,82855.2,82760.01,82260.082,82355.8,82276.635,82776.572,
canvas.Screen,9_14_1,2023-01-14T04:14:13.636Z,,,d,,,270,999.889,timeout,eR.jpg,,,83854.9,83759.784,82760.01,82855.5,82776.572,83776.461,
canvas.Screen,9_14_2,2023-01-14T04:14:14.136Z,,,d,,,270,499.822,timeout,eR.jpg,,,84355,84259.8,83759.784,83855.3,83776.461,84276.283,
canvas.Screen,9_14_3,2023-01-14T04:14:16.331Z,,,d,TRUE,d,270,2272.817,response,eR.jpg,d,keypress(j),86550.5,86549.1,84259.8,84355.3,84276.283,86476.069,
canvas.Screen,9_14_4,2023-01-14T04:14:16.835Z,,,d,,,270,499.788,timeout,eR.jpg,,,87054.6,86959.444,86458.997,86557,86476.069,86975.857,
flow.Sequence,9_14,2023-01-14T04:14:16.836Z,,,d,,,270,4682.809,completion,eR.jpg,,,87054.9,86959.444,82260.082,82355.8,82276.635,86975.857,
canvas.Screen,9_15_0,2023-01-14T04:14:17.335Z,,,b,,,90,500.021,timeout,e.jpg,,,87554.7,87459.498,86959.444,87055.1,86975.857,87475.878,
canvas.Screen,9_15_1,2023-01-14T04:14:18.335Z,,,b,,,90,999.887,timeout,e.jpg,,,88554.3,88459.196,87459.498,87554.9,87475.878,88475.765,
canvas.Screen,9_15_2,2023-01-14T04:14:18.835Z,,,b,,,90,500.02,timeout,e.jpg,,,89054.2,88959.056,88459.196,88554.5,88475.765,88975.785,
canvas.Screen,9_15_3,2023-01-14T04:14:19.440Z,,,b,TRUE,b,90,682.715,response,e.jpg,b,keypress(f),89659.5,89658.5,88959.056,89054.4,88975.785,89575.483,
canvas.Screen,9_15_4,2023-01-14T04:14:19.935Z,,,b,,,90,500.057,timeout,e.jpg,,,90154.2,90058.937,89559.297,89661.8,89575.483,90075.54,
flow.Sequence,9_15,2023-01-14T04:14:19.935Z,,,b,,,90,3083.08,completion,e.jpg,,,90154.5,90058.937,86959.444,87055,86975.857,90075.54,
flow.Loop,9,2023-01-14T04:14:19.935Z,,,,,,,63991.643,completion,,,,90154.7,90058.937,26050.791,26146.3,26067.294,90075.54,
canvas.Screen,10_0_0,2023-01-14T04:14:20.435Z,,,d,,,315,499.846,timeout,eR.jpg,,,90654.3,90558.975,90058.937,90154.9,90075.54,90575.386,
canvas.Screen,10_0_1,2023-01-14T04:14:21.435Z,,,d,,,315,999.949,timeout,eR.jpg,,,91654,91558.874,90558.975,90654.4,90575.386,91575.335,
canvas.Screen,10_0_2,2023-01-14T04:14:21.935Z,,,d,,,315,500.093,timeout,eR.jpg,,,92153.9,92058.779,91558.874,91654.2,91575.335,92075.428,
canvas.Screen,10_0_3,2023-01-14T04:14:22.598Z,,,d,TRUE,d,315,741.272,response,eR.jpg,d,keypress(j),92817.6,92816.7,92058.779,92154,92075.428,92741.781,
canvas.Screen,10_0_4,2023-01-14T04:14:23.101Z,,,d,,,315,499.917,timeout,eR.jpg,,,93320.7,93225.415,92725.433,92826.6,92741.781,93241.698,
flow.Sequence,10_0,2023-01-14T04:14:23.102Z,,,d,,,315,3149.875,completion,eR.jpg,,,93321,93225.415,90058.937,90154.8,90075.54,93241.698,
canvas.Screen,10_1_0,2023-01-14T04:14:23.601Z,,,b,,,270,500.124,timeout,e.jpg,,,93820.6,93725.418,93225.415,93321.1,93241.698,93741.822,
canvas.Screen,10_1_1,2023-01-14T04:14:24.601Z,,,b,,,270,999.818,timeout,e.jpg,,,94820,94725.19,93725.418,93820.7,93741.822,94741.64,
canvas.Screen,10_1_2,2023-01-14T04:14:25.101Z,,,b,,,270,499.829,timeout,e.jpg,,,95320.6,95225.316,94725.19,94820.2,94741.64,95241.469,
canvas.Screen,10_1_3,2023-01-14T04:14:25.839Z,,,b,TRUE,b,270,816.131,response,e.jpg,b,keypress(f),96058.3,96057.6,95225.316,95320.8,95241.469,95974.731,
canvas.Screen,10_1_4,2023-01-14T04:14:26.334Z,,,b,,,270,500.039,timeout,e.jpg,,,96553.1,96458.027,95958.375,96066.1,95974.731,96474.77,
flow.Sequence,10_1,2023-01-14T04:14:26.334Z,,,b,,,270,3216.329,completion,e.jpg,,,96553.4,96458.027,93225.415,93321.1,93241.698,96474.77,
canvas.Screen,10_2_0,2023-01-14T04:14:26.834Z,,,d,,,225,499.941,timeout,eR.jpg,,,97053.2,96958.128,96458.027,96553.5,96474.77,96974.711,
canvas.Screen,10_2_1,2023-01-14T04:14:27.834Z,,,d,,,225,999.745,timeout,eR.jpg,,,98053.1,97957.904,96958.128,97053.5,96974.711,97974.456,
canvas.Screen,10_2_2,2023-01-14T04:14:28.334Z,,,d,,,225,500.035,timeout,eR.jpg,,,98552.9,98457.773,97957.904,98053.3,97974.456,98474.491,
canvas.Screen,10_2_3,2023-01-14T04:14:29.324Z,,,d,TRUE,d,225,1068.609,response,eR.jpg,d,keypress(j),99543.5,99543.1,98457.773,98553.1,98474.491,99457.488,
canvas.Screen,10_2_4,2023-01-14T04:14:29.817Z,,,d,,,225,500.185,timeout,eR.jpg,,,100036.3,99941.1,99441.13,99544.4,99457.488,99957.673,
flow.Sequence,10_2,2023-01-14T04:14:29.817Z,,,d,,,225,3466.33,completion,eR.jpg,,,100036.6,99941.1,96458.027,96553.5,96474.77,99957.673,
canvas.Screen,10_3_0,2023-01-14T04:14:30.317Z,,,b,,,180,499.718,timeout,e.jpg,,,100535.9,100440.933,99941.1,100036.8,99957.673,100457.391,
canvas.Screen,10_3_1,2023-01-14T04:14:31.317Z,,,b,,,180,1000.026,timeout,e.jpg,,,101535.9,101440.851,100440.933,100536.1,100457.391,101457.417,
canvas.Screen,10_3_2,2023-01-14T04:14:31.817Z,,,b,,,180,499.743,timeout,e.jpg,,,102036,101940.855,101440.851,101536.2,101457.417,101957.16,
canvas.Screen,10_3_3,2023-01-14T04:14:33.342Z,,,b,TRUE,b,180,1602.44,response,e.jpg,b,keypress(f),103560.8,103559.6,101940.855,102036.2,101957.16,103490.414,
canvas.Screen,10_3_4,2023-01-14T04:14:33.850Z,,,b,,,180,500.034,timeout,e.jpg,,,104069,103973.818,103473.547,103572.4,103490.414,103990.448,
flow.Sequence,10_3,2023-01-14T04:14:33.850Z,,,b,,,180,4016.145,completion,e.jpg,,,104069.3,103973.818,99941.1,100036.7,99957.673,103990.448,
canvas.Screen,10_4_0,2023-01-14T04:14:34.350Z,,,d,,,135,499.933,timeout,eR.jpg,,,104569,104473.889,103973.818,104069.5,103990.448,104490.381,
canvas.Screen,10_4_1,2023-01-14T04:14:35.350Z,,,d,,,135,999.8,timeout,eR.jpg,,,105568.9,105473.644,104473.889,104569.2,104490.381,105490.181,
canvas.Screen,10_4_2,2023-01-14T04:14:35.850Z,,,d,,,135,499.999,timeout,eR.jpg,,,106068.9,105973.672,105473.644,105569.1,105490.181,105990.18,
canvas.Screen,10_4_3,2023-01-14T04:14:36.927Z,,,d,TRUE,d,135,1155.22,response,eR.jpg,d,keypress(j),107146.4,107145.4,105973.672,106069.1,105990.18,107073.362,
canvas.Screen,10_4_4,2023-01-14T04:14:37.433Z,,,d,,,135,500.05,timeout,eR.jpg,,,107651.9,107556.684,107056.744,107156.7,107073.362,107573.412,
flow.Sequence,10_4,2023-01-14T04:14:37.433Z,,,d,,,135,3566.236,completion,eR.jpg,,,107652.2,107556.684,103973.818,104069.5,103990.448,107573.412,
canvas.Screen,10_5_0,2023-01-14T04:14:37.932Z,,,d,,,0,499.651,timeout,eR.jpg,,,108151.6,108056.486,107556.684,107652.4,107573.412,108073.063,
canvas.Screen,10_5_1,2023-01-14T04:14:38.932Z,,,d,,,0,1000.136,timeout,eR.jpg,,,109151.5,109056.316,108056.486,108151.7,108073.063,109073.199,
canvas.Screen,10_5_2,2023-01-14T04:14:39.432Z,,,d,,,0,499.686,timeout,eR.jpg,,,109651.6,109556.359,109056.316,109151.7,109073.199,109572.885,
canvas.Screen,10_5_3,2023-01-14T04:14:40.738Z,,,d,TRUE,d,0,1382.915,response,eR.jpg,d,keypress(j),110956.9,110955.8,109556.359,109651.8,109572.885,110889.527,
canvas.Screen,10_5_4,2023-01-14T04:14:41.248Z,,,d,,,0,499.887,timeout,eR.jpg,,,111467.5,111372.785,110856.294,110966.8,110889.527,111389.414,
flow.Sequence,10_5,2023-01-14T04:14:41.248Z,,,d,,,0,3799.373,completion,eR.jpg,,,111467.6,111372.785,107556.684,107652.4,107573.412,111389.414,
canvas.Screen,10_6_0,2023-01-14T04:14:41.749Z,,,b,,,0,499.906,timeout,e.jpg,,,111968.2,111872.994,111372.785,111467.7,111389.414,111889.32,
canvas.Screen,10_6_1,2023-01-14T04:14:42.749Z,,,b,,,0,999.937,timeout,e.jpg,,,112967.9,112872.817,111872.994,111968.4,111889.32,112889.257,
canvas.Screen,10_6_2,2023-01-14T04:14:43.248Z,,,b,,,0,499.822,timeout,e.jpg,,,113467.7,113372.444,112872.817,112968.2,112889.257,113389.079,
canvas.Screen,10_6_3,2023-01-14T04:14:44.841Z,,,b,TRUE,b,0,1670.121,response,e.jpg,b,keypress(f),115060.3,115059.2,113372.444,113467.8,113389.079,114988.904,
canvas.Screen,10_6_4,2023-01-14T04:14:45.348Z,,,b,,,0,499.812,timeout,e.jpg,,,115567.5,115472.309,114972.013,115070.2,114988.904,115488.716,
flow.Sequence,10_6,2023-01-14T04:14:45.349Z,,,b,,,0,4082.895,completion,e.jpg,,,115567.9,115472.309,111372.785,111467.7,111389.414,115488.716,
canvas.Screen,10_7_0,2023-01-14T04:14:45.848Z,,,b,,,315,500.075,timeout,e.jpg,,,116067.5,115972.299,115472.309,115568,115488.716,115988.791,
canvas.Screen,10_7_1,2023-01-14T04:14:46.848Z,,,b,,,315,999.932,timeout,e.jpg,,,117067,116972.159,115972.299,116067.8,115988.791,116988.723,
canvas.Screen,10_7_2,2023-01-14T04:14:47.348Z,,,b,,,315,499.81,timeout,e.jpg,,,117567.1,117471.968,116972.159,117067,116988.723,117488.533,
canvas.Screen,10_7_3,2023-01-14T04:14:48.262Z,,,b,TRUE,b,315,992.067,response,e.jpg,b,keypress(f),118481.4,118480.6,117471.968,117567.3,117488.533,118405.034,
canvas.Screen,10_7_4,2023-01-14T04:14:48.764Z,,,b,,,315,500.251,timeout,e.jpg,,,118983.8,118888.615,118388.742,118488.7,118405.034,118905.285,
flow.Sequence,10_7,2023-01-14T04:14:48.765Z,,,b,,,315,3399.899,completion,e.jpg,,,118984.1,118888.615,115472.309,115568,115488.716,118905.285,
canvas.Screen,10_8_0,2023-01-14T04:14:49.264Z,,,b,,,90,500.125,timeout,e.jpg,,,119483.6,119388.347,118888.615,118984.3,118905.285,119405.41,
canvas.Screen,10_8_1,2023-01-14T04:14:50.264Z,,,b,,,90,999.79,timeout,e.jpg,,,120483.6,120388.385,119388.347,119483.9,119405.41,120405.2,
canvas.Screen,10_8_2,2023-01-14T04:14:50.764Z,,,b,,,90,499.707,timeout,e.jpg,,,120983.2,120888.16,120388.385,120483.8,120405.2,120904.907,
canvas.Screen,10_8_3,2023-01-14T04:14:51.327Z,,,b,TRUE,b,90,641.193,response,e.jpg,b,keypress(f),121546.5,121546.1,120888.16,120983.5,120904.907,121454.591,
canvas.Screen,10_8_4,2023-01-14T04:14:51.814Z,,,b,,,90,500.148,timeout,e.jpg,,,122033.3,121938.235,121438.256,121547.3,121454.591,121954.739,
flow.Sequence,10_8,2023-01-14T04:14:51.814Z,,,b,,,90,3032.95,completion,e.jpg,,,122033.6,121938.235,118888.615,118984.2,118905.285,121954.739,
canvas.Screen,10_9_0,2023-01-14T04:14:52.314Z,,,d,,,45,499.827,timeout,eR.jpg,,,122533,122438.058,121938.235,122033.7,121954.739,122454.566,
canvas.Screen,10_9_1,2023-01-14T04:14:53.314Z,,,d,,,45,999.879,timeout,eR.jpg,,,123533.1,123437.858,122438.058,122533.2,122454.566,123454.445,
canvas.Screen,10_9_2,2023-01-14T04:14:53.814Z,,,d,,,45,500.015,timeout,eR.jpg,,,124033,123937.894,123437.858,123533.4,123454.445,123954.46,
canvas.Screen,10_9_3,2023-01-14T04:14:54.770Z,,,d,TRUE,d,45,1033.74,response,eR.jpg,d,keypress(j),124989.1,124988.2,123937.894,124033.2,123954.46,124904.151,
canvas.Screen,10_9_4,2023-01-14T04:14:55.263Z,,,d,,,45,500.101,timeout,eR.jpg,,,125482.7,125387.585,124887.52,124996,124904.151,125404.252,
flow.Sequence,10_9,2023-01-14T04:14:55.264Z,,,d,,,45,3432.846,completion,eR.jpg,,,125483,125387.585,121938.235,122033.7,121954.739,125404.252,
canvas.Screen,10_10_0,2023-01-14T04:14:55.763Z,,,b,,,135,499.873,timeout,e.jpg,,,125982.8,125887.516,125387.585,125483.2,125404.252,125904.125,
canvas.Screen,10_10_1,2023-01-14T04:14:56.763Z,,,b,,,135,999.838,timeout,e.jpg,,,126982.5,126887.415,125887.516,125982.9,125904.125,126903.963,
canvas.Screen,10_10_2,2023-01-14T04:14:57.263Z,,,b,,,135,500.106,timeout,e.jpg,,,127482.5,127387.371,126887.415,126982.8,126903.963,127404.069,
canvas.Screen,10_10_3,2023-01-14T04:14:58.135Z,,,b,TRUE,b,135,950.131,response,e.jpg,b,keypress(f),128354.7,128354.2,127387.371,127482.7,127404.069,128270.388,
canvas.Screen,10_10_4,2023-01-14T04:14:58.630Z,,,b,,,135,499.946,timeout,e.jpg,,,128849.1,128753.92,128253.798,128362,128270.388,128770.334,
flow.Sequence,10_10,2023-01-14T04:14:58.630Z,,,b,,,135,3349.668,completion,e.jpg,,,128849.7,128753.92,125387.585,125483.1,125404.252,128770.334,
canvas.Screen,10_11_0,2023-01-14T04:14:59.130Z,,,d,,,90,499.94,timeout,eR.jpg,,,129349,129253.88,128753.92,128849.9,128770.334,129270.274,
canvas.Screen,10_11_1,2023-01-14T04:15:00.129Z,,,d,,,90,999.812,timeout,eR.jpg,,,130347.9,130253.397,129253.88,129349.3,129270.274,130270.086,
canvas.Screen,10_11_2,2023-01-14T04:15:00.629Z,,,d,,,90,499.988,timeout,eR.jpg,,,130847.9,130753.413,130253.397,130347.9,130270.086,130770.074,
canvas.Screen,10_11_3,2023-01-14T04:15:01.565Z,,,d,TRUE,d,90,1013.526,response,eR.jpg,d,keypress(j),131784,131783.6,130753.413,130847.9,130770.074,131703.311,
canvas.Screen,10_11_4,2023-01-14T04:15:02.062Z,,,d,,,90,500.101,timeout,eR.jpg,,,132281.7,132186.706,131687.252,131784.5,131703.311,132203.412,
flow.Sequence,10_11,2023-01-14T04:15:02.063Z,,,d,,,90,3416.372,completion,eR.jpg,,,132282.1,132186.706,128753.92,128849.9,128770.334,132203.412,
canvas.Screen,10_12_0,2023-01-14T04:15:02.563Z,,,d,,,180,499.919,timeout,eR.jpg,,,132781.9,132686.716,132186.706,132282.3,132203.412,132703.331,
canvas.Screen,10_12_1,2023-01-14T04:15:03.562Z,,,d,,,180,999.89,timeout,eR.jpg,,,133781.7,133686.634,132686.716,132782.1,132703.331,133703.221,
canvas.Screen,10_12_2,2023-01-14T04:15:04.062Z,,,d,,,180,499.777,timeout,eR.jpg,,,134281.6,134186.414,133686.634,133781.9,133703.221,134202.998,
canvas.Screen,10_12_3,2023-01-14T04:15:05.642Z,,,d,TRUE,d,180,1657.002,response,eR.jpg,d,keypress(j),135861.2,135860,134186.414,134281.7,134202.998,135786.092,
canvas.Screen,10_12_4,2023-01-14T04:15:06.145Z,,,d,,,180,499.883,timeout,eR.jpg,,,136364.7,136269.533,135769.686,135869,135786.092,136285.975,
flow.Sequence,10_12,2023-01-14T04:15:06.146Z,,,d,,,180,4066.121,completion,eR.jpg,,,136365.1,136269.533,132186.706,132282.2,132203.412,136285.975,
canvas.Screen,10_13_0,2023-01-14T04:15:06.645Z,,,b,,,225,500.033,timeout,e.jpg,,,136864.8,136769.538,136269.533,136365.2,136285.975,136786.008,
canvas.Screen,10_13_1,2023-01-14T04:15:07.645Z,,,b,,,225,1000.031,timeout,e.jpg,,,137864.6,137769.315,136769.538,136865,136786.008,137786.039,
canvas.Screen,10_13_2,2023-01-14T04:15:08.145Z,,,b,,,225,499.761,timeout,e.jpg,,,138364.4,138269.332,137769.315,137864.7,137786.039,138285.8,
canvas.Screen,10_13_3,2023-01-14T04:15:09.474Z,,,b,FALSE,b,225,1407.2,response,e.jpg,d,keypress(j),139693.5,139693,138269.332,138364.6,138285.8,139618.917,
canvas.Screen,10_13_4,2023-01-14T04:15:09.978Z,,,b,,,225,500.011,timeout,e.jpg,,,140197.6,140102.373,139602.047,139700.5,139618.917,140118.928,
flow.Sequence,10_13,2023-01-14T04:15:09.979Z,,,b,,,225,3816.398,completion,e.jpg,,,140197.9,140102.373,136269.533,136365.1,136285.975,140118.928,
canvas.Screen,10_14_0,2023-01-14T04:15:10.478Z,,,b,,,45,499.993,timeout,e.jpg,,,140697.6,140602.448,140102.373,140198.1,140118.928,140618.921,
canvas.Screen,10_14_1,2023-01-14T04:15:11.478Z,,,b,,,45,999.844,timeout,e.jpg,,,141697.4,141602.25,140602.448,140697.9,140618.921,141618.765,
canvas.Screen,10_14_2,2023-01-14T04:15:11.978Z,,,b,,,45,500.001,timeout,e.jpg,,,142197.2,142102.149,141602.25,141697.9,141618.765,142118.766,
canvas.Screen,10_14_3,2023-01-14T04:15:12.874Z,,,b,TRUE,b,45,974.334,response,e.jpg,b,keypress(f),143093.8,143093.1,142102.149,142197.4,142118.766,143018.388,
canvas.Screen,10_14_4,2023-01-14T04:15:13.378Z,,,b,,,45,500.038,timeout,e.jpg,,,143597.3,143501.986,143002.065,143101.7,143018.388,143518.426,
flow.Sequence,10_14,2023-01-14T04:15:13.378Z,,,b,,,45,3383.058,completion,e.jpg,,,143597.7,143501.986,140102.373,140198,140118.928,143518.426,
canvas.Screen,10_15_0,2023-01-14T04:15:13.879Z,,,d,,,270,499.951,timeout,eR.jpg,,,144097.9,144002.065,143501.986,143597.9,143518.426,144018.377,
canvas.Screen,10_15_1,2023-01-14T04:15:14.878Z,,,d,,,270,999.759,timeout,eR.jpg,,,145097.2,145001.929,144002.065,144098.2,144018.377,145018.136,
canvas.Screen,10_15_2,2023-01-14T04:15:15.378Z,,,d,,,270,499.97,timeout,eR.jpg,,,145596.9,145501.832,145001.929,145097.3,145018.136,145518.106,
canvas.Screen,10_15_3,2023-01-14T04:15:16.517Z,,,d,TRUE,d,270,1217.994,response,eR.jpg,d,keypress(j),146736.5,146736.1,145501.832,145597.1,145518.106,146651.483,
canvas.Screen,10_15_4,2023-01-14T04:15:17.011Z,,,d,,,270,499.796,timeout,eR.jpg,,,147230.2,147135.013,146634.828,146741.8,146651.483,147151.279,
flow.Sequence,10_15,2023-01-14T04:15:17.011Z,,,d,,,270,3616.587,completion,eR.jpg,,,147230.5,147135.013,143501.986,143597.8,143518.426,147151.279,
flow.Loop,10,2023-01-14T04:15:17.011Z,,,,,,,57059.473,completion,,,,147230.6,147135.013,90058.937,90154.8,90075.54,147151.279,
canvas.Screen,11_0_0,2023-01-14T04:15:17.511Z,,,b,,,0,500.092,timeout,e.jpg,,,147730.3,147635.111,147135.013,147230.9,147151.279,147651.371,
canvas.Screen,11_0_1,2023-01-14T04:15:18.511Z,,,b,,,0,999.828,timeout,e.jpg,,,148730.1,148634.943,147635.111,147730.5,147651.371,148651.199,
canvas.Screen,11_0_2,2023-01-14T04:15:19.010Z,,,b,,,0,499.861,timeout,e.jpg,,,149229.6,149134.469,148634.943,148730.4,148651.199,149151.06,
canvas.Screen,11_0_3,2023-01-14T04:15:20.249Z,,,b,TRUE,b,0,1316.74,response,e.jpg,b,keypress(f),150468.6,150467.8,149134.469,149229.7,149151.06,150384.185,
canvas.Screen,11_0_4,2023-01-14T04:15:20.743Z,,,b,,,0,499.92,timeout,e.jpg,,,150962.7,150867.561,150367.55,150476.3,150384.185,150884.105,
flow.Sequence,11_0,2023-01-14T04:15:20.744Z,,,b,,,0,3716.282,completion,e.jpg,,,150963,150867.561,147135.013,147230.9,147151.279,150884.105,
canvas.Screen,11_1_0,2023-01-14T04:15:21.243Z,,,b,,,135,500,timeout,e.jpg,,,151462.8,151367.51,150867.561,150963.2,150884.105,151384.105,
canvas.Screen,11_1_1,2023-01-14T04:15:22.243Z,,,b,,,135,999.839,timeout,e.jpg,,,152462.6,152367.358,151367.51,151463,151384.105,152383.944,
canvas.Screen,11_1_2,2023-01-14T04:15:22.743Z,,,b,,,135,499.902,timeout,e.jpg,,,152962.4,152867.276,152367.358,152462.7,152383.944,152883.846,
canvas.Screen,11_1_3,2023-01-14T04:15:24.228Z,,,b,TRUE,b,135,1563.354,response,e.jpg,b,keypress(f),154447.6,154447.2,152867.276,152962.6,152883.846,154366.897,
canvas.Screen,11_1_4,2023-01-14T04:15:24.726Z,,,b,,,135,500.044,timeout,e.jpg,,,154945.7,154850.44,154350.149,154454.7,154366.897,154866.941,
flow.Sequence,11_1,2023-01-14T04:15:24.727Z,,,b,,,135,3966.335,completion,e.jpg,,,154946,154850.44,150867.561,150963.1,150884.105,154866.941,
canvas.Screen,11_2_0,2023-01-14T04:15:25.226Z,,,b,,,45,499.858,timeout,e.jpg,,,155445.5,155350.275,154850.44,154946.3,154866.941,155366.799,
canvas.Screen,11_2_1,2023-01-14T04:15:26.226Z,,,b,,,45,999.976,timeout,e.jpg,,,156445.4,156350.326,155350.275,155445.7,155366.799,156366.775,
canvas.Screen,11_2_2,2023-01-14T04:15:26.727Z,,,b,,,45,499.832,timeout,e.jpg,,,156946.2,156850.31,156350.326,156445.7,156366.775,156866.607,
canvas.Screen,11_2_3,2023-01-14T04:15:28.496Z,,,b,TRUE,b,45,1847.793,response,e.jpg,b,keypress(f),158715.2,158714.4,156850.31,156954.6,156866.607,158633.016,
canvas.Screen,11_2_4,2023-01-14T04:15:28.992Z,,,b,,,45,500.108,timeout,e.jpg,,,159211.6,159116.435,158616.661,158722.2,158633.016,159133.124,
flow.Sequence,11_2,2023-01-14T04:15:28.993Z,,,b,,,45,4249.494,completion,e.jpg,,,159211.9,159116.435,154850.44,154946.1,154866.941,159133.124,
canvas.Screen,11_3_0,2023-01-14T04:15:29.492Z,,,d,,,180,499.992,timeout,eR.jpg,,,159711.4,159616.344,159116.435,159212,159133.124,159633.116,
canvas.Screen,11_3_1,2023-01-14T04:15:30.492Z,,,d,,,180,999.619,timeout,eR.jpg,,,160711.4,160616.372,159616.344,159711.6,159633.116,160632.735,
canvas.Screen,11_3_2,2023-01-14T04:15:30.992Z,,,d,,,180,500.119,timeout,eR.jpg,,,161211.5,161116.274,160616.372,160711.6,160632.735,161132.854,
canvas.Screen,11_3_3,2023-01-14T04:15:32.456Z,,,d,TRUE,d,180,1542.446,response,eR.jpg,d,keypress(j),162675.6,162675.3,161116.274,161211.8,161132.854,162599.198,
canvas.Screen,11_3_4,2023-01-14T04:15:32.959Z,,,d,,,180,500.167,timeout,eR.jpg,,,163177.9,163082.689,162582.299,162683,162599.198,163099.365,
flow.Sequence,11_3,2023-01-14T04:15:32.959Z,,,d,,,180,3949.565,completion,eR.jpg,,,163178.4,163082.689,159116.435,159211.9,159133.124,163099.365,
canvas.Screen,11_4_0,2023-01-14T04:15:33.458Z,,,d,,,45,499.768,timeout,eR.jpg,,,163677.8,163582.653,163082.689,163178.5,163099.365,163599.133,
canvas.Screen,11_4_1,2023-01-14T04:15:34.458Z,,,d,,,45,999.752,timeout,eR.jpg,,,164677.7,164582.512,163582.653,163678,163599.133,164598.885,
canvas.Screen,11_4_2,2023-01-14T04:15:34.958Z,,,d,,,45,499.979,timeout,eR.jpg,,,165177.5,165082.353,164582.512,164677.9,164598.885,165098.864,
canvas.Screen,11_4_3,2023-01-14T04:15:35.688Z,,,d,TRUE,d,45,807.736,response,eR.jpg,d,keypress(j),165907.8,165906.6,165082.353,165177.7,165098.864,165832.367,
canvas.Screen,11_4_4,2023-01-14T04:15:36.191Z,,,d,,,45,499.803,timeout,eR.jpg,,,166410.7,166315.532,165799.148,165909.4,165832.367,166332.17,
flow.Sequence,11_4,2023-01-14T04:15:36.192Z,,,d,,,45,3216.167,completion,eR.jpg,,,166411,166315.532,163082.689,163178.5,163099.365,166332.17,
canvas.Screen,11_5_0,2023-01-14T04:15:36.691Z,,,d,,,0,499.875,timeout,eR.jpg,,,166910.7,166815.442,166315.532,166411.2,166332.17,166832.045,
canvas.Screen,11_5_1,2023-01-14T04:15:37.691Z,,,d,,,0,1000.011,timeout,eR.jpg,,,167910.6,167815.379,166815.442,166910.9,166832.045,167832.056,
canvas.Screen,11_5_2,2023-01-14T04:15:38.191Z,,,d,,,0,499.938,timeout,eR.jpg,,,168410.7,168315.107,167815.379,167910.8,167832.056,168331.994,
canvas.Screen,11_5_3,2023-01-14T04:15:39.057Z,,,d,TRUE,d,0,943.906,response,eR.jpg,d,keypress(j),169276.8,169275.9,168315.107,168410.7,168331.994,169198.33,
canvas.Screen,11_5_4,2023-01-14T04:15:39.558Z,,,d,,,0,500.169,timeout,eR.jpg,,,169777.2,169681.742,169181.828,169282.2,169198.33,169698.499,
flow.Sequence,11_5,2023-01-14T04:15:39.558Z,,,d,,,0,3349.572,completion,eR.jpg,,,169777.5,169681.742,166315.532,166411.1,166332.17,169698.499,
canvas.Screen,11_6_0,2023-01-14T04:15:40.058Z,,,d,,,90,499.693,timeout,eR.jpg,,,170277,170181.726,169681.742,169777.6,169698.499,170198.192,
canvas.Screen,11_6_1,2023-01-14T04:15:41.057Z,,,d,,,90,999.994,timeout,eR.jpg,,,171276.8,171181.63,170181.726,170277.2,170198.192,171198.186,
canvas.Screen,11_6_2,2023-01-14T04:15:41.557Z,,,d,,,90,499.951,timeout,eR.jpg,,,171776.8,171681.525,171181.63,171276.9,171198.186,171698.137,
canvas.Screen,11_6_3,2023-01-14T04:15:42.408Z,,,d,TRUE,d,90,928.563,response,eR.jpg,d,keypress(j),172627.5,172626.7,171681.525,171777,171698.137,172547.9,
canvas.Screen,11_6_4,2023-01-14T04:15:42.907Z,,,d,,,90,500.051,timeout,eR.jpg,,,173126.5,173031.364,172531.115,172637.6,172547.9,173047.951,
flow.Sequence,11_6,2023-01-14T04:15:42.907Z,,,d,,,90,3332.865,completion,eR.jpg,,,173126.8,173031.364,169681.742,169777.5,169698.499,173047.951,
canvas.Screen,11_7_0,2023-01-14T04:15:43.407Z,,,d,,,225,500.074,timeout,eR.jpg,,,173626.5,173531.369,173031.364,173126.8,173047.951,173548.025,
canvas.Screen,11_7_1,2023-01-14T04:15:44.407Z,,,d,,,225,999.703,timeout,eR.jpg,,,174626.4,174531.24,173531.369,173626.7,173548.025,174547.728,
canvas.Screen,11_7_2,2023-01-14T04:15:44.907Z,,,d,,,225,499.898,timeout,eR.jpg,,,175126.3,175031.182,174531.24,174626.7,174547.728,175047.626,
canvas.Screen,11_7_3,2023-01-14T04:15:46.198Z,,,d,TRUE,d,225,1368.674,response,eR.jpg,d,keypress(j),176416.9,176416.3,175031.182,175126.6,175047.626,176330.653,
canvas.Screen,11_7_4,2023-01-14T04:15:46.689Z,,,d,,,225,500.022,timeout,eR.jpg,,,176908.8,176814.053,176314.241,176422.4,176330.653,176830.675,
flow.Sequence,11_7,2023-01-14T04:15:46.690Z,,,d,,,225,3766.102,completion,eR.jpg,,,176908.8,176814.053,173031.364,173126.8,173047.951,176830.675,
canvas.Screen,11_8_0,2023-01-14T04:15:47.190Z,,,d,,,315,500.007,timeout,eR.jpg,,,177408.9,177313.975,176814.053,176908.9,176830.675,177330.682,
canvas.Screen,11_8_1,2023-01-14T04:15:48.189Z,,,d,,,315,999.867,timeout,eR.jpg,,,178408.6,178313.906,177313.975,177409.1,177330.682,178330.549,
canvas.Screen,11_8_2,2023-01-14T04:15:48.689Z,,,d,,,315,500.012,timeout,eR.jpg,,,178908.7,178813.783,178313.906,178408.7,178330.549,178830.561,
canvas.Screen,11_8_3,2023-01-14T04:15:50.064Z,,,d,TRUE,d,315,1452.539,response,eR.jpg,d,keypress(j),180283.8,180283.1,178813.783,178908.8,178830.561,180196.851,
canvas.Screen,11_8_4,2023-01-14T04:15:50.557Z,,,d,,,315,500.039,timeout,eR.jpg,,,180776.4,180680.454,180180.28,180284.9,180196.851,180696.89,
flow.Sequence,11_8,2023-01-14T04:15:50.557Z,,,d,,,315,3849.779,completion,eR.jpg,,,180776.7,180680.454,176814.053,176908.8,176830.675,180696.89,
canvas.Screen,11_9_0,2023-01-14T04:15:51.056Z,,,b,,,90,500.074,timeout,e.jpg,,,181275.5,181180.322,180680.454,180776.9,180696.89,181196.964,
canvas.Screen,11_9_1,2023-01-14T04:15:52.056Z,,,b,,,90,999.91,timeout,e.jpg,,,182275.4,182180.155,181180.322,181275.7,181196.964,182196.874,
canvas.Screen,11_9_2,2023-01-14T04:15:52.557Z,,,b,,,90,499.603,timeout,e.jpg,,,182776.1,182680.12,182180.155,182275.5,182196.874,182696.477,
canvas.Screen,11_9_3,2023-01-14T04:15:53.551Z,,,b,TRUE,b,90,1073.123,response,e.jpg,b,keypress(f),183770.6,183769.6,182680.12,182786.1,182696.477,183696.616,
canvas.Screen,11_9_4,2023-01-14T04:15:54.056Z,,,b,,,90,499.83,timeout,e.jpg,,,184275,184179.927,183680.407,183776.2,183696.616,184196.446,
flow.Sequence,11_9,2023-01-14T04:15:54.056Z,,,b,,,90,3483.037,completion,e.jpg,,,184275.4,184179.927,180680.454,180776.9,180696.89,184196.446,
canvas.Screen,11_10_0,2023-01-14T04:15:54.556Z,,,b,,,180,499.922,timeout,e.jpg,,,184775.1,184679.883,184179.927,184275.5,184196.446,184696.368,
canvas.Screen,11_10_1,2023-01-14T04:15:55.555Z,,,b,,,180,999.764,timeout,e.jpg,,,185775,185679.804,184679.883,184775.3,184696.368,185696.132,
canvas.Screen,11_10_2,2023-01-14T04:15:56.055Z,,,b,,,180,500.036,timeout,e.jpg,,,186274.8,186179.648,185679.804,185775.2,185696.132,186196.168,
canvas.Screen,11_10_3,2023-01-14T04:15:56.945Z,,,b,FALSE,b,180,967.132,response,e.jpg,d,keypress(j),187164.3,187163.3,186179.648,186275.1,186196.168,187095.993,
canvas.Screen,11_10_4,2023-01-14T04:15:57.455Z,,,b,,,180,499.987,timeout,e.jpg,,,187674.5,187579.325,187079.681,187175.6,187095.993,187595.98,
flow.Sequence,11_10,2023-01-14T04:15:57.455Z,,,b,,,180,3382.879,completion,e.jpg,,,187674.9,187579.325,184179.927,184275.5,184196.446,187595.98,
canvas.Screen,11_11_0,2023-01-14T04:15:57.955Z,,,d,,,270,499.847,timeout,eR.jpg,,,188174.7,188079.446,187579.325,187675.1,187595.98,188095.827,
canvas.Screen,11_11_1,2023-01-14T04:15:58.955Z,,,d,,,270,999.942,timeout,eR.jpg,,,189174.3,189079.166,188079.446,188174.9,188095.827,189095.769,
canvas.Screen,11_11_2,2023-01-14T04:15:59.455Z,,,d,,,270,499.86,timeout,eR.jpg,,,189674.3,189579.056,189079.166,189174.4,189095.769,189595.629,
canvas.Screen,11_11_3,2023-01-14T04:16:00.291Z,,,d,TRUE,d,270,914.371,response,eR.jpg,d,keypress(j),190510.8,190510,189579.056,189674.5,189595.629,190428.83,
canvas.Screen,11_11_4,2023-01-14T04:16:00.788Z,,,d,,,270,499.908,timeout,eR.jpg,,,191007.5,190912.405,190412.212,190521.6,190428.83,190928.738,
flow.Sequence,11_11,2023-01-14T04:16:00.788Z,,,d,,,270,3316.425,completion,eR.jpg,,,191007.7,190912.405,187579.325,187675,187595.98,190928.738,
canvas.Screen,11_12_0,2023-01-14T04:16:01.288Z,,,b,,,225,500.208,timeout,e.jpg,,,191507.4,191412.271,190912.405,191007.9,190928.738,191428.946,
canvas.Screen,11_12_1,2023-01-14T04:16:02.288Z,,,b,,,225,999.801,timeout,e.jpg,,,192507.2,192412.095,191412.271,191507.6,191428.946,192428.747,
canvas.Screen,11_12_2,2023-01-14T04:16:02.788Z,,,b,,,225,499.805,timeout,e.jpg,,,193007.2,192912.165,192412.095,192507.3,192428.747,192928.552,
canvas.Screen,11_12_3,2023-01-14T04:16:03.918Z,,,b,TRUE,b,225,1207.848,response,e.jpg,b,keypress(f),194137.3,194136.4,192912.165,193007.5,192928.552,194061.672,
canvas.Screen,11_12_4,2023-01-14T04:16:04.421Z,,,b,,,225,500.214,timeout,e.jpg,,,194640.1,194545.073,194045.391,194140.3,194061.672,194561.886,
flow.Sequence,11_12,2023-01-14T04:16:04.421Z,,,b,,,225,3616.335,completion,e.jpg,,,194640.5,194545.073,190912.405,191007.8,190928.738,194561.886,
canvas.Screen,11_13_0,2023-01-14T04:16:04.921Z,,,b,,,315,499.804,timeout,e.jpg,,,195140.9,195045.049,194545.073,194640.6,194561.886,195061.69,
canvas.Screen,11_13_1,2023-01-14T04:16:05.921Z,,,b,,,315,999.939,timeout,e.jpg,,,196140,196044.878,195045.049,195141.2,195061.69,196061.629,
canvas.Screen,11_13_2,2023-01-14T04:16:06.421Z,,,b,,,315,499.834,timeout,e.jpg,,,196640.8,196545.004,196044.878,196140.3,196061.629,196561.463,
canvas.Screen,11_13_3,2023-01-14T04:16:07.490Z,,,b,TRUE,b,315,1146.937,response,e.jpg,b,keypress(f),197709.4,197708.4,196545.004,196641.1,196561.463,197628.007,
canvas.Screen,11_13_4,2023-01-14T04:16:07.987Z,,,b,,,315,499.997,timeout,e.jpg,,,198206.6,198111.364,197611.3,197717.7,197628.007,198128.004,
flow.Sequence,11_13,2023-01-14T04:16:07.988Z,,,b,,,315,3549.478,completion,e.jpg,,,198207.2,198111.364,194545.073,194640.6,194561.886,198128.004,
canvas.Screen,11_14_0,2023-01-14T04:16:08.487Z,,,d,,,135,499.903,timeout,eR.jpg,,,198706.6,198611.345,198111.364,198207.4,198128.004,198627.907,
canvas.Screen,11_14_1,2023-01-14T04:16:09.487Z,,,d,,,135,999.791,timeout,eR.jpg,,,199706.2,199611.261,198611.345,198706.8,198627.907,199627.698,
canvas.Screen,11_14_2,2023-01-14T04:16:09.987Z,,,d,,,135,499.88,timeout,eR.jpg,,,200206.4,200111.112,199611.261,199706.4,199627.698,200127.578,
canvas.Screen,11_14_3,2023-01-14T04:16:11.229Z,,,d,TRUE,d,135,1319.922,response,eR.jpg,d,keypress(j),201448.6,201447.5,200111.112,200206.7,200127.578,201377.553,
canvas.Screen,11_14_4,2023-01-14T04:16:11.737Z,,,d,,,135,499.762,timeout,eR.jpg,,,201956.1,201860.943,201346.924,201457.8,201377.553,201877.315,
flow.Sequence,11_14,2023-01-14T04:16:11.737Z,,,d,,,135,3732.939,completion,eR.jpg,,,201956.4,201860.943,198111.364,198207.3,198128.004,201877.315,
canvas.Screen,11_15_0,2023-01-14T04:16:12.236Z,,,b,,,270,500.061,timeout,e.jpg,,,202456,202360.879,201860.943,201956.6,201877.315,202377.376,
canvas.Screen,11_15_1,2023-01-14T04:16:13.237Z,,,b,,,270,999.802,timeout,e.jpg,,,203456.2,203360.8,202360.879,202456.2,202377.376,203377.178,
canvas.Screen,11_15_2,2023-01-14T04:16:13.736Z,,,b,,,270,499.885,timeout,e.jpg,,,203955.7,203860.523,203360.8,203456.4,203377.178,203877.063,
canvas.Screen,11_15_3,2023-01-14T04:16:14.746Z,,,b,TRUE,b,270,1087.637,response,e.jpg,b,keypress(f),204965.7,204964.7,203860.523,203955.8,203877.063,204893.663,
canvas.Screen,11_15_4,2023-01-14T04:16:15.253Z,,,b,,,270,499.934,timeout,e.jpg,,,205472.2,205376.92,204877.592,204977.1,204893.663,205393.597,
flow.Sequence,11_15,2023-01-14T04:16:15.253Z,,,b,,,270,3499.605,completion,e.jpg,,,205472.6,205376.92,201860.943,201956.6,201877.315,205393.597,
flow.Loop,11,2023-01-14T04:16:15.253Z,,,,,,,58225.641,completion,,,,205472.7,205376.92,147135.013,147230.8,147151.279,205393.597,
canvas.Screen,12_0_0,2023-01-14T04:16:15.753Z,,,d,,,270,499.848,timeout,eR.jpg,,,205972.1,205876.894,205376.92,205472.8,205393.597,205893.445,
canvas.Screen,12_0_1,2023-01-14T04:16:16.753Z,,,d,,,270,999.877,timeout,eR.jpg,,,206972.3,206877.001,205876.894,205972.4,205893.445,206893.322,
canvas.Screen,12_0_2,2023-01-14T04:16:17.252Z,,,d,,,270,500.151,timeout,eR.jpg,,,207471.9,207376.715,206877.001,206972.6,206893.322,207393.473,
canvas.Screen,12_0_3,2023-01-14T04:16:18.459Z,,,d,TRUE,d,270,1283.627,response,eR.jpg,d,keypress(j),208678.2,208677.1,207376.715,207472.1,207393.473,208609.982,
canvas.Screen,12_0_4,2023-01-14T04:16:18.969Z,,,d,,,270,499.903,timeout,eR.jpg,,,209188.6,209093.309,208593.655,208687.7,208609.982,209109.885,
flow.Sequence,12_0,2023-01-14T04:16:18.969Z,,,d,,,270,3699.712,completion,eR.jpg,,,209188.9,209093.309,205376.92,205472.8,205393.597,209109.885,
canvas.Screen,12_1_0,2023-01-14T04:16:19.469Z,,,d,,,315,499.718,timeout,eR.jpg,,,209688.6,209593.3,209093.309,209189.1,209109.885,209609.603,
canvas.Screen,12_1_1,2023-01-14T04:16:20.469Z,,,d,,,315,1000.182,timeout,eR.jpg,,,210688.3,210593.097,209593.3,209688.8,209609.603,210609.785,
canvas.Screen,12_1_2,2023-01-14T04:16:20.969Z,,,d,,,315,499.69,timeout,eR.jpg,,,211188.3,211093.094,210593.097,210688.4,210609.785,211109.475,
canvas.Screen,12_1_3,2023-01-14T04:16:21.919Z,,,d,TRUE,d,315,1027.525,response,eR.jpg,d,keypress(j),212138,212137,211093.094,211188.5,211109.475,212059.319,
canvas.Screen,12_1_4,2023-01-14T04:16:22.419Z,,,d,,,315,499.863,timeout,eR.jpg,,,212638.1,212542.892,212042.739,212140.1,212059.319,212559.182,
flow.Sequence,12_1,2023-01-14T04:16:22.419Z,,,d,,,315,3433.007,completion,eR.jpg,,,212638.4,212542.892,209093.309,209189,209109.885,212559.182,
canvas.Screen,12_2_0,2023-01-14T04:16:22.918Z,,,b,,,90,500.118,timeout,e.jpg,,,213138,213042.754,212542.892,212639.3,212559.182,213059.3,
canvas.Screen,12_2_1,2023-01-14T04:16:23.918Z,,,b,,,90,999.9,timeout,e.jpg,,,214137.7,214042.564,213042.754,213138.2,213059.3,214059.2,
canvas.Screen,12_2_2,2023-01-14T04:16:24.418Z,,,b,,,90,499.868,timeout,e.jpg,,,214637.9,214542.734,214042.564,214137.9,214059.2,214559.068,
canvas.Screen,12_2_3,2023-01-14T04:16:25.294Z,,,b,TRUE,b,90,953.732,response,e.jpg,b,keypress(f),215513.8,215512.8,214542.734,214638.1,214559.068,215442.211,
canvas.Screen,12_2_4,2023-01-14T04:16:25.801Z,,,b,,,90,499.898,timeout,e.jpg,,,216020.8,215925.56,215426.134,215521.4,215442.211,215942.109,
flow.Sequence,12_2,2023-01-14T04:16:25.802Z,,,b,,,90,3366.378,completion,e.jpg,,,216021.2,215925.56,212542.892,212638.5,212559.182,215942.109,
canvas.Screen,12_3_0,2023-01-14T04:16:26.301Z,,,b,,,270,500.126,timeout,e.jpg,,,216520.7,216425.523,215925.56,216021.3,215942.109,216442.235,
canvas.Screen,12_3_1,2023-01-14T04:16:27.301Z,,,b,,,270,999.793,timeout,e.jpg,,,217520.7,217425.479,216425.523,216521,216442.235,217442.028,
canvas.Screen,12_3_2,2023-01-14T04:16:27.801Z,,,b,,,270,499.982,timeout,e.jpg,,,218020.5,217925.353,217425.479,217520.8,217442.028,217942.01,
canvas.Screen,12_3_3,2023-01-14T04:16:28.786Z,,,b,TRUE,b,270,1062.89,response,e.jpg,b,keypress(f),219005.4,219004.9,217925.353,218020.9,217942.01,218925.01,
canvas.Screen,12_3_4,2023-01-14T04:16:29.284Z,,,b,,,270,500.081,timeout,e.jpg,,,219503.6,219408.406,218908.769,219012.6,218925.01,219425.091,
flow.Sequence,12_3,2023-01-14T04:16:29.284Z,,,b,,,270,3466.297,completion,e.jpg,,,219503.9,219408.406,215925.56,216021.3,215942.109,219425.091,
canvas.Screen,12_4_0,2023-01-14T04:16:29.784Z,,,d,,,45,499.979,timeout,eR.jpg,,,220003.6,219908.427,219408.406,219504.1,219425.091,219925.07,
canvas.Screen,12_4_1,2023-01-14T04:16:30.784Z,,,d,,,45,999.849,timeout,eR.jpg,,,221003.6,220908.379,219908.427,220003.8,219925.07,220924.919,
canvas.Screen,12_4_2,2023-01-14T04:16:31.284Z,,,d,,,45,499.908,timeout,eR.jpg,,,221503.4,221408.241,220908.379,221003.7,220924.919,221424.827,
canvas.Screen,12_4_3,2023-01-14T04:16:32.058Z,,,d,TRUE,d,45,851.773,response,eR.jpg,d,keypress(j),222277.6,222276.6,221408.241,221503.6,221424.827,222208.123,
canvas.Screen,12_4_4,2023-01-14T04:16:32.567Z,,,d,,,45,499.925,timeout,eR.jpg,,,222786.7,222691.446,222191.378,222287.5,222208.123,222708.048,
flow.Sequence,12_4,2023-01-14T04:16:32.567Z,,,d,,,45,3266.355,completion,eR.jpg,,,222787,222691.446,219408.406,219504,219425.091,222708.048,
canvas.Screen,12_5_0,2023-01-14T04:16:33.068Z,,,d,,,135,499.817,timeout,eR.jpg,,,223287.8,223191.397,222691.446,222787.1,222708.048,223207.865,
canvas.Screen,12_5_1,2023-01-14T04:16:34.067Z,,,d,,,135,999.948,timeout,eR.jpg,,,224286.5,224191.35,223191.397,223288.1,223207.865,224207.813,
canvas.Screen,12_5_2,2023-01-14T04:16:34.567Z,,,d,,,135,499.922,timeout,eR.jpg,,,224786.4,224691.353,224191.35,224286.7,224207.813,224707.735,
canvas.Screen,12_5_3,2023-01-14T04:16:35.715Z,,,d,TRUE,d,135,1226.165,response,eR.jpg,d,keypress(j),225934.4,225933.9,224691.353,224786.7,224707.735,225857.449,
canvas.Screen,12_5_4,2023-01-14T04:16:36.217Z,,,d,,,135,500.027,timeout,eR.jpg,,,226436.3,226341.013,225840.658,225941.6,225857.449,226357.476,
flow.Sequence,12_5,2023-01-14T04:16:36.217Z,,,d,,,135,3632.965,completion,eR.jpg,,,226436.6,226341.013,222691.446,222787.1,222708.048,226357.476,
canvas.Screen,12_6_0,2023-01-14T04:16:36.717Z,,,b,,,315,499.818,timeout,e.jpg,,,226936.2,226841.013,226341.013,226436.8,226357.476,226857.294,
canvas.Screen,12_6_1,2023-01-14T04:16:37.717Z,,,b,,,315,999.976,timeout,e.jpg,,,227936.6,227840.669,226841.013,226936.4,226857.294,227857.27,
canvas.Screen,12_6_2,2023-01-14T04:16:38.216Z,,,b,,,315,499.903,timeout,e.jpg,,,228435.9,228340.725,227840.669,227936.8,227857.27,228357.173,
canvas.Screen,12_6_3,2023-01-14T04:16:39.400Z,,,b,TRUE,b,315,1261.327,response,e.jpg,b,keypress(f),229619.4,229618.5,228340.725,228436.1,228357.173,229540.627,
canvas.Screen,12_6_4,2023-01-14T04:16:39.900Z,,,b,,,315,499.685,timeout,e.jpg,,,230119.3,230023.867,229523.934,229631.1,229540.627,230040.312,
flow.Sequence,12_6,2023-01-14T04:16:39.900Z,,,b,,,315,3666.391,completion,e.jpg,,,230119.6,230023.867,226341.013,226436.8,226357.476,230040.312,
canvas.Screen,12_7_0,2023-01-14T04:16:40.399Z,,,b,,,225,500.133,timeout,e.jpg,,,230618.9,230523.697,230023.867,230119.8,230040.312,230540.445,
canvas.Screen,12_7_1,2023-01-14T04:16:41.399Z,,,b,,,225,999.702,timeout,e.jpg,,,231618.9,231523.65,230523.697,230619.1,230540.445,231540.147,
canvas.Screen,12_7_2,2023-01-14T04:16:41.899Z,,,b,,,225,499.958,timeout,e.jpg,,,232118.8,232023.611,231523.65,231619.1,231540.147,232040.105,
canvas.Screen,12_7_3,2023-01-14T04:16:42.831Z,,,b,TRUE,b,225,1008.995,response,e.jpg,b,keypress(f),233050.1,233049.1,232023.611,232119,232040.105,232973.332,
canvas.Screen,12_7_4,2023-01-14T04:16:43.332Z,,,b,,,225,499.828,timeout,e.jpg,,,233551.7,233456.595,232956.754,233062.4,232973.332,233473.16,
flow.Sequence,12_7,2023-01-14T04:16:43.332Z,,,b,,,225,3416.283,completion,e.jpg,,,233552,233456.595,230023.867,230119.7,230040.312,233473.16,
canvas.Screen,12_8_0,2023-01-14T04:16:43.832Z,,,b,,,135,500.088,timeout,e.jpg,,,234051.7,233956.616,233456.595,233552.1,233473.16,233973.248,
canvas.Screen,12_8_1,2023-01-14T04:16:44.832Z,,,b,,,135,999.822,timeout,e.jpg,,,235051.7,234956.483,233956.616,234052,233973.248,234973.07,
canvas.Screen,12_8_2,2023-01-14T04:16:45.332Z,,,b,,,135,500,timeout,e.jpg,,,235551.7,235456.434,234956.483,235051.9,234973.07,235473.07,
canvas.Screen,12_8_3,2023-01-14T04:16:46.147Z,,,b,FALSE,b,135,892.03,response,e.jpg,d,keypress(j),236366,236365.1,235456.434,235551.8,235473.07,236289.399,
canvas.Screen,12_8_4,2023-01-14T04:16:46.649Z,,,b,,,135,500.082,timeout,e.jpg,,,236868.2,236772.943,236272.832,236368.7,236289.399,236789.481,
flow.Sequence,12_8,2023-01-14T04:16:46.649Z,,,b,,,135,3299.783,completion,e.jpg,,,236868.5,236772.943,233456.595,233552.1,233473.16,236789.481,
canvas.Screen,12_9_0,2023-01-14T04:16:47.149Z,,,d,,,0,499.863,timeout,eR.jpg,,,237368.8,237272.957,236772.943,236868.7,236789.481,237289.344,
canvas.Screen,12_9_1,2023-01-14T04:16:48.148Z,,,d,,,0,999.812,timeout,eR.jpg,,,238368,238272.699,237272.957,237369.2,237289.344,238289.156,
canvas.Screen,12_9_2,2023-01-14T04:16:48.649Z,,,d,,,0,500.058,timeout,eR.jpg,,,238868.6,238772.612,238272.699,238368.2,238289.156,238789.214,
canvas.Screen,12_9_3,2023-01-14T04:16:49.324Z,,,d,TRUE,d,0,753.786,response,eR.jpg,d,keypress(j),239543.7,239543,238772.612,238868.8,238789.214,239474.952,
canvas.Screen,12_9_4,2023-01-14T04:16:49.831Z,,,d,,,0,497.421,timeout,eR.jpg,,,240050.9,239955.819,239439.179,239549.3,239474.952,239972.373,
flow.Sequence,12_9,2023-01-14T04:16:49.831Z,,,d,,,0,3166.338,completion,eR.jpg,,,240051.2,239955.819,236772.943,236868.7,236789.481,239972.373,
canvas.Screen,12_10_0,2023-01-14T04:16:50.331Z,,,b,,,180,499.772,timeout,e.jpg,,,240550.8,240455.668,239955.819,240051.4,239972.373,240472.145,
canvas.Screen,12_10_1,2023-01-14T04:16:51.331Z,,,b,,,180,1000.005,timeout,e.jpg,,,241550.9,241455.668,240455.668,240551,240472.145,241472.15,
canvas.Screen,12_10_2,2023-01-14T04:16:51.831Z,,,b,,,180,499.987,timeout,e.jpg,,,242050.9,241955.837,241455.668,241551.1,241472.15,241972.137,
canvas.Screen,12_10_3,2023-01-14T04:16:52.797Z,,,b,TRUE,b,180,1043.763,response,e.jpg,b,keypress(f),243016.9,243015.9,241955.837,242051.1,241972.137,242938.569,
canvas.Screen,12_10_4,2023-01-14T04:16:53.297Z,,,b,,,180,499.94,timeout,e.jpg,,,243517.3,243422.156,242921.936,243028.2,242938.569,243438.509,
flow.Sequence,12_10,2023-01-14T04:16:53.298Z,,,b,,,180,3449.783,completion,e.jpg,,,243517.6,243422.156,239955.819,240051.3,239972.373,243438.509,
canvas.Screen,12_11_0,2023-01-14T04:16:53.797Z,,,d,,,225,500.012,timeout,eR.jpg,,,244017.2,243922,243422.156,243517.7,243438.509,243938.521,
canvas.Screen,12_11_1,2023-01-14T04:16:54.797Z,,,d,,,225,999.898,timeout,eR.jpg,,,245017.2,244922.004,243922,244017.5,243938.521,244938.419,
canvas.Screen,12_11_2,2023-01-14T04:16:55.297Z,,,d,,,225,499.996,timeout,eR.jpg,,,245517,245421.787,244922.004,245017.4,244938.419,245438.415,
canvas.Screen,12_11_3,2023-01-14T04:16:56.249Z,,,d,TRUE,d,225,1029.385,response,eR.jpg,d,keypress(j),246468.7,246467.8,245421.787,245517.2,245438.415,246388.284,
canvas.Screen,12_11_4,2023-01-14T04:16:56.747Z,,,d,,,225,499.717,timeout,eR.jpg,,,246966.9,246871.763,246371.647,246471.5,246388.284,246888.001,
flow.Sequence,12_11,2023-01-14T04:16:56.747Z,,,d,,,225,3433.254,completion,eR.jpg,,,246967.2,246871.763,243422.156,243517.7,243438.509,246888.001,
canvas.Screen,12_12_0,2023-01-14T04:16:57.247Z,,,b,,,0,499.895,timeout,e.jpg,,,247466.8,247371.542,246871.763,246967.4,246888.001,247387.896,
canvas.Screen,12_12_1,2023-01-14T04:16:58.247Z,,,b,,,0,1000.307,timeout,e.jpg,,,248466.6,248371.418,247371.542,247467,247387.896,248388.203,
canvas.Screen,12_12_2,2023-01-14T04:16:58.747Z,,,b,,,0,499.776,timeout,e.jpg,,,248966.5,248871.354,248371.418,248466.7,248388.203,248887.979,
canvas.Screen,12_12_3,2023-01-14T04:16:59.294Z,,,b,TRUE,b,0,626.021,response,e.jpg,b,keypress(f),249514.4,249514,248871.354,248966.8,248887.979,249437.706,
canvas.Screen,12_12_4,2023-01-14T04:16:59.796Z,,,b,,,0,500.067,timeout,e.jpg,,,250016.3,249921.168,249421.306,249519.7,249437.706,249937.773,
flow.Sequence,12_12,2023-01-14T04:16:59.797Z,,,b,,,0,3033.167,completion,e.jpg,,,250016.7,249921.168,246871.763,246967.3,246888.001,249937.773,
canvas.Screen,12_13_0,2023-01-14T04:17:00.296Z,,,d,,,180,500.049,timeout,eR.jpg,,,250516.2,250420.981,249921.168,250016.8,249937.773,250437.822,
canvas.Screen,12_13_1,2023-01-14T04:17:01.296Z,,,d,,,180,999.73,timeout,eR.jpg,,,251516.1,251420.954,250420.981,250516.4,250437.822,251437.552,
canvas.Screen,12_13_2,2023-01-14T04:17:01.796Z,,,d,,,180,499.932,timeout,eR.jpg,,,252016.2,251920.88,251420.954,251516.3,251437.552,251937.484,
canvas.Screen,12_13_3,2023-01-14T04:17:02.404Z,,,d,TRUE,d,180,686.416,response,eR.jpg,d,keypress(j),252624.3,252623.9,251920.88,252016.3,251937.484,252537.278,
canvas.Screen,12_13_4,2023-01-14T04:17:02.896Z,,,d,,,180,500.051,timeout,eR.jpg,,,253116.1,253020.903,252520.62,252624.8,252537.278,253037.329,
flow.Sequence,12_13,2023-01-14T04:17:02.896Z,,,d,,,180,3083.13,completion,eR.jpg,,,253116.4,253020.903,249921.168,250016.8,249937.773,253037.329,
canvas.Screen,12_14_0,2023-01-14T04:17:03.396Z,,,b,,,45,499.982,timeout,e.jpg,,,253616,253520.835,253020.903,253116.6,253037.329,253537.311,
canvas.Screen,12_14_1,2023-01-14T04:17:04.396Z,,,b,,,45,999.862,timeout,e.jpg,,,254615.9,254520.651,253520.835,253616.2,253537.311,254537.173,
canvas.Screen,12_14_2,2023-01-14T04:17:04.895Z,,,b,,,45,499.911,timeout,e.jpg,,,255115.2,255020.417,254520.651,254616,254537.173,255037.084,
canvas.Screen,12_14_3,2023-01-14T04:17:05.545Z,,,b,TRUE,b,45,727.016,response,e.jpg,b,keypress(f),255765.1,255764.1,255020.417,255115.2,255037.084,255686.984,
canvas.Screen,12_14_4,2023-01-14T04:17:06.045Z,,,b,,,45,499.813,timeout,e.jpg,,,256265.3,256170.243,255670.089,255777.3,255686.984,256186.797,
flow.Sequence,12_14,2023-01-14T04:17:06.046Z,,,b,,,45,3132.914,completion,e.jpg,,,256265.6,256170.243,253020.903,253116.6,253037.329,256186.797,
canvas.Screen,12_15_0,2023-01-14T04:17:06.546Z,,,d,,,90,500.172,timeout,eR.jpg,,,256765.5,256670.196,256170.243,256265.9,256186.797,256686.969,
canvas.Screen,12_15_1,2023-01-14T04:17:07.545Z,,,d,,,90,999.566,timeout,eR.jpg,,,257765.3,257670.212,256670.196,256765.8,256686.969,257686.535,
canvas.Screen,12_15_2,2023-01-14T04:17:08.045Z,,,d,,,90,500.204,timeout,eR.jpg,,,258265.1,258169.972,257670.212,257765.7,257686.535,258186.739,
canvas.Screen,12_15_3,2023-01-14T04:17:08.482Z,,,d,TRUE,d,90,515.061,response,eR.jpg,d,keypress(j),258702.3,258701.8,258169.972,258265.2,258186.739,258619.838,
canvas.Screen,12_15_4,2023-01-14T04:17:08.979Z,,,d,,,90,499.949,timeout,eR.jpg,,,259198.8,259103.35,258603.314,258709.6,258619.838,259119.787,
flow.Sequence,12_15,2023-01-14T04:17:08.979Z,,,d,,,90,2916.553,completion,eR.jpg,,,259199.2,259103.35,256170.243,256265.8,256186.797,259119.787,
flow.Loop,12,2023-01-14T04:17:08.980Z,,,,,,,53709.753,completion,,,,259199.5,259103.35,205376.92,205472.8,205393.597,259119.787,
canvas.Screen,13_0_0,2023-01-14T04:17:09.479Z,,,b,,,0,500.051,timeout,e.jpg,,,259698.5,259603.329,259103.35,259199.8,259119.787,259619.838,
canvas.Screen,13_0_1,2023-01-14T04:17:10.478Z,,,b,,,0,999.728,timeout,e.jpg,,,260698.4,260603.143,259603.329,259698.7,259619.838,260619.566,
canvas.Screen,13_0_2,2023-01-14T04:17:10.978Z,,,b,,,0,500.144,timeout,e.jpg,,,261198.2,261103.054,260603.143,260698.6,260619.566,261119.71,
canvas.Screen,13_0_3,2023-01-14T04:17:11.421Z,,,b,TRUE,b,0,520.49,response,e.jpg,b,keypress(f),261641.1,261640.2,261103.054,261198.4,261119.71,261552.684,
canvas.Screen,13_0_4,2023-01-14T04:17:11.912Z,,,b,,,0,500.044,timeout,e.jpg,,,262131.5,262036.186,261536.362,261641.9,261552.684,262052.728,
flow.Sequence,13_0,2023-01-14T04:17:11.912Z,,,b,,,0,2916.399,completion,e.jpg,,,262131.8,262036.186,259103.35,259199.7,259119.787,262052.728,
canvas.Screen,13_1_0,2023-01-14T04:17:12.411Z,,,d,,,90,499.983,timeout,eR.jpg,,,262631.2,262536.184,262036.186,262131.9,262052.728,262552.711,
canvas.Screen,13_1_1,2023-01-14T04:17:13.412Z,,,d,,,90,999.876,timeout,eR.jpg,,,263631.9,263536.001,262536.184,262631.4,262552.711,263552.587,
canvas.Screen,13_1_2,2023-01-14T04:17:13.911Z,,,d,,,90,499.942,timeout,eR.jpg,,,264131.1,264036.066,263536.001,263632.1,263552.587,264052.529,
canvas.Screen,13_1_3,2023-01-14T04:17:14.414Z,,,d,TRUE,d,90,580.971,response,eR.jpg,d,keypress(j),264634.4,264633.5,264036.066,264131.4,264052.529,264552.385,
canvas.Screen,13_1_4,2023-01-14T04:17:14.911Z,,,d,,,90,499.951,timeout,eR.jpg,,,265130.8,265035.821,264535.855,264635.9,264552.385,265052.336,
flow.Sequence,13_1,2023-01-14T04:17:14.911Z,,,d,,,90,2983.093,completion,eR.jpg,,,265131.1,265035.821,262036.186,262131.9,262052.728,265052.336,
canvas.Screen,13_2_0,2023-01-14T04:17:15.411Z,,,d,,,135,500.172,timeout,eR.jpg,,,265630.8,265535.659,265035.821,265131.3,265052.336,265552.508,
canvas.Screen,13_2_1,2023-01-14T04:17:16.411Z,,,d,,,135,999.791,timeout,eR.jpg,,,266630.8,266535.565,265535.659,265631,265552.508,266552.299,
canvas.Screen,13_2_2,2023-01-14T04:17:16.911Z,,,d,,,135,499.897,timeout,eR.jpg,,,267130.8,267035.534,266535.565,266631,266552.299,267052.196,
canvas.Screen,13_2_3,2023-01-14T04:17:17.749Z,,,d,TRUE,d,135,915.304,response,eR.jpg,d,keypress(j),267969.3,267967.5,267035.534,267131.1,267052.196,267902.048,
canvas.Screen,13_2_4,2023-01-14T04:17:18.261Z,,,d,,,135,499.912,timeout,eR.jpg,,,268480.5,268385.318,267885.223,267979.9,267902.048,268401.96,
flow.Sequence,13_2,2023-01-14T04:17:18.261Z,,,d,,,135,3332.982,completion,eR.jpg,,,268480.8,268385.318,265035.821,265131.2,265052.336,268401.96,
canvas.Screen,13_3_0,2023-01-14T04:17:18.760Z,,,b,,,135,500.057,timeout,e.jpg,,,268980.4,268885.289,268385.318,268481,268401.96,268902.017,
canvas.Screen,13_3_1,2023-01-14T04:17:19.760Z,,,b,,,135,999.807,timeout,e.jpg,,,269980.4,269885.173,268885.289,268980.5,268902.017,269901.824,
canvas.Screen,13_3_2,2023-01-14T04:17:20.260Z,,,b,,,135,499.954,timeout,e.jpg,,,270480.4,270385.136,269885.173,269980.6,269901.824,270401.778,
canvas.Screen,13_3_3,2023-01-14T04:17:20.890Z,,,b,TRUE,b,135,707.222,response,e.jpg,b,keypress(f),271110,271109,270385.136,270480.6,270401.778,271034.768,
canvas.Screen,13_3_4,2023-01-14T04:17:21.394Z,,,b,,,135,500.083,timeout,e.jpg,,,271613.6,271518.294,271018.24,271121.9,271034.768,271534.851,
flow.Sequence,13_3,2023-01-14T04:17:21.394Z,,,b,,,135,3116.334,completion,e.jpg,,,271613.9,271518.294,268385.318,268480.9,268401.96,271534.851,
canvas.Screen,13_4_0,2023-01-14T04:17:21.893Z,,,b,,,180,500.144,timeout,e.jpg,,,272113,272018.128,271518.294,271614,271534.851,272034.995,
canvas.Screen,13_4_1,2023-01-14T04:17:22.893Z,,,b,,,180,999.509,timeout,e.jpg,,,273113.1,273018.114,272018.128,272113.2,272034.995,273034.504,
canvas.Screen,13_4_2,2023-01-14T04:17:23.395Z,,,b,,,180,500.095,timeout,e.jpg,,,273614.8,273518.081,273018.114,273113.4,273034.504,273534.599,
canvas.Screen,13_4_3,2023-01-14T04:17:23.793Z,,,b,FALSE,b,180,477.601,response,e.jpg,d,keypress(j),274012.7,274012.2,273518.081,273615.1,273534.599,273934.503,
canvas.Screen,13_4_4,2023-01-14T04:17:24.293Z,,,b,,,180,499.845,timeout,e.jpg,,,274512.8,274417.89,273918.067,274013.5,273934.503,274434.348,
flow.Sequence,13_4,2023-01-14T04:17:24.293Z,,,b,,,180,2883.039,completion,e.jpg,,,274513,274417.89,271518.294,271614,271534.851,274434.348,
canvas.Screen,13_5_0,2023-01-14T04:17:24.793Z,,,b,,,315,500.348,timeout,e.jpg,,,275012.9,274917.75,274417.89,274513.1,274434.348,274934.696,
canvas.Screen,13_5_1,2023-01-14T04:17:25.793Z,,,b,,,315,999.787,timeout,e.jpg,,,276012.8,275917.685,274917.75,275013,274934.696,275934.483,
canvas.Screen,13_5_2,2023-01-14T04:17:26.293Z,,,b,,,315,500.151,timeout,e.jpg,,,276512.7,276417.774,275917.685,276013,275934.483,276434.634,
canvas.Screen,13_5_3,2023-01-14T04:17:26.672Z,,,b,TRUE,b,315,455.966,response,e.jpg,b,keypress(f),276891.7,276890.6,276417.774,276513,276434.634,276817.378,
canvas.Screen,13_5_4,2023-01-14T04:17:27.176Z,,,b,,,315,500.094,timeout,e.jpg,,,277396.1,277300.799,276800.863,276899.6,276817.378,277317.472,
flow.Sequence,13_5,2023-01-14T04:17:27.176Z,,,b,,,315,2866.451,completion,e.jpg,,,277396.4,277300.799,274417.89,274513.1,274434.348,277317.472,
canvas.Screen,13_6_0,2023-01-14T04:17:27.676Z,,,b,,,90,499.907,timeout,e.jpg,,,277896.1,277800.847,277300.799,277396.6,277317.472,277817.379,
canvas.Screen,13_6_1,2023-01-14T04:17:28.676Z,,,b,,,90,999.821,timeout,e.jpg,,,278895.9,278800.772,277800.847,277896.4,277817.379,278817.2,
canvas.Screen,13_6_2,2023-01-14T04:17:29.176Z,,,b,,,90,499.95,timeout,e.jpg,,,279395.7,279300.654,278800.772,278896,278817.2,279317.15,
canvas.Screen,13_6_3,2023-01-14T04:17:29.782Z,,,b,TRUE,b,90,683.75,response,e.jpg,b,keypress(f),280001.7,280000.9,279300.654,279395.9,279317.15,279917.091,
canvas.Screen,13_6_4,2023-01-14T04:17:30.276Z,,,b,,,90,499.916,timeout,e.jpg,,,280495.9,280400.556,279900.301,280003.4,279917.091,280417.007,
flow.Sequence,13_6,2023-01-14T04:17:30.276Z,,,b,,,90,3083.084,completion,e.jpg,,,280496.2,280400.556,277300.799,277396.6,277317.472,280417.007,
canvas.Screen,13_7_0,2023-01-14T04:17:30.776Z,,,b,,,225,499.822,timeout,e.jpg,,,280995.7,280900.384,280400.556,280496.3,280417.007,280916.829,
canvas.Screen,13_7_1,2023-01-14T04:17:31.775Z,,,b,,,225,999.859,timeout,e.jpg,,,281995.3,281900.276,280900.384,280995.8,280916.829,281916.688,
canvas.Screen,13_7_2,2023-01-14T04:17:32.275Z,,,b,,,225,500.01,timeout,e.jpg,,,282495.4,282400.243,281900.276,282003.6,281916.688,282416.698,
canvas.Screen,13_7_3,2023-01-14T04:17:33.206Z,,,b,TRUE,b,225,1008.002,response,e.jpg,b,keypress(f),283425.7,283424.7,282400.243,282495.6,282416.698,283350.026,
canvas.Screen,13_7_4,2023-01-14T04:17:33.708Z,,,b,,,225,499.958,timeout,e.jpg,,,283928.5,283833.314,283326.804,283434.2,283350.026,283849.984,
flow.Sequence,13_7,2023-01-14T04:17:33.709Z,,,b,,,225,3416.307,completion,e.jpg,,,283928.8,283833.314,280400.556,280496.3,280417.007,283849.984,
canvas.Screen,13_8_0,2023-01-14T04:17:34.208Z,,,d,,,45,499.74,timeout,eR.jpg,,,284427.5,284333.016,283833.314,283929,283849.984,284349.724,
canvas.Screen,13_8_1,2023-01-14T04:17:35.208Z,,,d,,,45,999.895,timeout,eR.jpg,,,285427.4,285332.938,284333.016,284427.6,284349.724,285349.619,
canvas.Screen,13_8_2,2023-01-14T04:17:35.708Z,,,d,,,45,500.137,timeout,eR.jpg,,,285928.3,285833.154,285332.938,285427.5,285349.619,285849.756,
canvas.Screen,13_8_3,2023-01-14T04:17:36.131Z,,,d,TRUE,d,45,499.844,response,eR.jpg,d,keypress(j),286350.6,286349.6,285833.154,285928.6,285849.756,286266.079,
canvas.Screen,13_8_4,2023-01-14T04:17:36.625Z,,,d,,,45,500.175,timeout,eR.jpg,,,286844.8,286749.63,286249.972,286352.3,286266.079,286766.254,
flow.Sequence,13_8,2023-01-14T04:17:36.625Z,,,d,,,45,2899.646,completion,eR.jpg,,,286845,286749.63,283833.314,283928.9,283849.984,286766.254,
canvas.Screen,13_9_0,2023-01-14T04:17:37.125Z,,,d,,,0,499.981,timeout,eR.jpg,,,287344.9,287249.654,286749.63,286845.2,286766.254,287266.235,
canvas.Screen,13_9_1,2023-01-14T04:17:38.125Z,,,d,,,0,999.856,timeout,eR.jpg,,,288344.6,288249.399,287249.654,287345.1,287266.235,288266.091,
canvas.Screen,13_9_2,2023-01-14T04:17:38.624Z,,,d,,,0,499.933,timeout,eR.jpg,,,288844.5,288749.416,288249.399,288344.8,288266.091,288766.024,
canvas.Screen,13_9_3,2023-01-14T04:17:39.370Z,,,d,TRUE,d,0,822.676,response,eR.jpg,d,keypress(j),289589.8,289588.7,288749.416,288844.6,288766.024,289515.835,
canvas.Screen,13_9_4,2023-01-14T04:17:39.875Z,,,d,,,0,499.866,timeout,eR.jpg,,,290094.6,289999.401,289499.585,289601.3,289515.835,290015.701,
flow.Sequence,13_9,2023-01-14T04:17:39.875Z,,,d,,,0,3233.147,completion,eR.jpg,,,290095,289999.401,286749.63,286845.1,286766.254,290015.701,
canvas.Screen,13_10_0,2023-01-14T04:17:40.374Z,,,d,,,225,500.052,timeout,eR.jpg,,,290594.1,290499.029,289999.401,290095.1,290015.701,290515.753,
canvas.Screen,13_10_1,2023-01-14T04:17:41.374Z,,,d,,,225,999.888,timeout,eR.jpg,,,291594,291498.94,290499.029,290594.4,290515.753,291515.641,
canvas.Screen,13_10_2,2023-01-14T04:17:41.875Z,,,d,,,225,499.702,timeout,eR.jpg,,,292094.6,291998.85,291498.94,291594.1,291515.641,292015.343,
canvas.Screen,13_10_3,2023-01-14T04:17:42.835Z,,,d,TRUE,d,225,1038.757,response,eR.jpg,d,keypress(j),293055.2,293054.1,291998.85,292104.9,292015.343,292982.028,
canvas.Screen,13_10_4,2023-01-14T04:17:43.341Z,,,d,,,225,499.799,timeout,eR.jpg,,,293561.4,293465.459,292965.338,293066.8,292982.028,293481.827,
flow.Sequence,13_10,2023-01-14T04:17:43.342Z,,,d,,,225,3449.758,completion,eR.jpg,,,293561.5,293465.459,289999.401,290095.1,290015.701,293481.827,
canvas.Screen,13_11_0,2023-01-14T04:17:43.840Z,,,b,,,270,500.157,timeout,e.jpg,,,294060.4,293965.307,293465.459,293561.6,293481.827,293981.984,
canvas.Screen,13_11_1,2023-01-14T04:17:44.840Z,,,b,,,270,999.81,timeout,e.jpg,,,295059.9,294965.049,293965.307,294060.5,293981.984,294981.794,
canvas.Screen,13_11_2,2023-01-14T04:17:45.340Z,,,b,,,270,499.857,timeout,e.jpg,,,295560.2,295465.1,294965.049,295059.9,294981.794,295481.651,
canvas.Screen,13_11_3,2023-01-14T04:17:46.055Z,,,b,TRUE,b,270,792.449,response,e.jpg,b,keypress(f),296275,296274.1,295465.1,295560.5,295481.651,296198.213,
canvas.Screen,13_11_4,2023-01-14T04:17:46.557Z,,,b,,,270,499.842,timeout,e.jpg,,,296776.6,296681.665,296181.559,296276,296198.213,296698.055,
flow.Sequence,13_11,2023-01-14T04:17:46.557Z,,,b,,,270,3199.838,completion,e.jpg,,,296776.7,296681.665,293465.459,293561.5,293481.827,296698.055,
canvas.Screen,13_12_0,2023-01-14T04:17:47.057Z,,,b,,,45,500.209,timeout,e.jpg,,,297277,297181.688,296681.665,296776.8,296698.055,297198.264,
canvas.Screen,13_12_1,2023-01-14T04:17:48.057Z,,,b,,,45,999.728,timeout,e.jpg,,,298276.6,298181.372,297181.688,297277.1,297198.264,298197.992,
canvas.Screen,13_12_2,2023-01-14T04:17:48.557Z,,,b,,,45,499.836,timeout,e.jpg,,,298776.5,298681.348,298181.372,298276.8,298197.992,298697.828,
canvas.Screen,13_12_3,2023-01-14T04:17:49.041Z,,,b,TRUE,b,45,561.372,response,e.jpg,b,keypress(f),299260.3,299259.2,298681.348,298776.7,298697.828,299181.169,
canvas.Screen,13_12_4,2023-01-14T04:17:49.541Z,,,b,,,45,500.127,timeout,e.jpg,,,299759.7,299664.539,299164.544,299271.7,299181.169,299681.296,
flow.Sequence,13_12,2023-01-14T04:17:49.541Z,,,b,,,45,2966.484,completion,e.jpg,,,299760.1,299664.539,296681.665,296776.7,296698.055,299681.296,
canvas.Screen,13_13_0,2023-01-14T04:17:50.041Z,,,d,,,270,500.026,timeout,eR.jpg,,,300259.6,300164.468,299664.539,299760.2,299681.296,300181.322,
canvas.Screen,13_13_1,2023-01-14T04:17:51.040Z,,,d,,,270,999.611,timeout,eR.jpg,,,301259.6,301164.368,300164.468,300259.9,300181.322,301180.933,
canvas.Screen,13_13_2,2023-01-14T04:17:51.541Z,,,d,,,270,499.954,timeout,eR.jpg,,,301759.8,301664.483,301164.368,301259.9,301180.933,301680.887,
canvas.Screen,13_13_3,2023-01-14T04:17:52.036Z,,,d,TRUE,d,270,573.213,response,eR.jpg,d,keypress(j),302255.2,302254.1,301664.483,301760,301680.887,302164.367,
canvas.Screen,13_13_4,2023-01-14T04:17:52.523Z,,,d,,,270,499.958,timeout,eR.jpg,,,302742.6,302647.466,302147.727,302256.9,302164.367,302664.325,
flow.Sequence,13_13,2023-01-14T04:17:52.524Z,,,d,,,270,2966.17,completion,eR.jpg,,,302742.9,302647.466,299664.539,299760.1,299681.296,302664.325,
canvas.Screen,13_14_0,2023-01-14T04:17:53.023Z,,,d,,,180,499.981,timeout,eR.jpg,,,303242.6,303147.454,302647.466,302742.9,302664.325,303164.306,
canvas.Screen,13_14_1,2023-01-14T04:17:54.023Z,,,d,,,180,999.598,timeout,eR.jpg,,,304242.5,304147.247,303147.454,303242.9,303164.306,304163.904,
canvas.Screen,13_14_2,2023-01-14T04:17:54.523Z,,,d,,,180,500.339,timeout,eR.jpg,,,304742.5,304647.211,304147.247,304242.8,304163.904,304664.243,
canvas.Screen,13_14_3,2023-01-14T04:17:55.155Z,,,d,TRUE,d,180,708.857,response,eR.jpg,d,keypress(j),305373.7,305373.1,304647.211,304742.7,304664.243,305296.992,
canvas.Screen,13_14_4,2023-01-14T04:17:55.657Z,,,d,,,180,500.127,timeout,eR.jpg,,,305875.8,305780.518,305280.492,305381.2,305296.992,305797.119,
flow.Sequence,13_14,2023-01-14T04:17:55.657Z,,,d,,,180,3116.193,completion,eR.jpg,,,305876,305780.518,302647.466,302742.9,302664.325,305797.119,
canvas.Screen,13_15_0,2023-01-14T04:17:56.156Z,,,d,,,315,499.806,timeout,eR.jpg,,,306375.5,306280.376,305780.518,305876.2,305797.119,306296.925,
canvas.Screen,13_15_1,2023-01-14T04:17:57.156Z,,,d,,,315,999.965,timeout,eR.jpg,,,307375.4,307280.281,306280.376,306375.8,306296.925,307296.89,
canvas.Screen,13_15_2,2023-01-14T04:17:57.656Z,,,d,,,315,499.833,timeout,eR.jpg,,,307875.3,307780.167,307280.281,307375.6,307296.89,307796.723,
canvas.Screen,13_15_3,2023-01-14T04:17:58.118Z,,,d,TRUE,d,315,540.077,response,eR.jpg,d,keypress(j),308337.4,308336.8,307780.167,307875.5,307796.723,308246.505,
canvas.Screen,13_15_4,2023-01-14T04:17:58.606Z,,,d,,,315,499.975,timeout,eR.jpg,,,308825.4,308730.119,308230.171,308338.7,308246.505,308746.48,
flow.Sequence,13_15,2023-01-14T04:17:58.607Z,,,d,,,315,2933,completion,eR.jpg,,,308825.7,308730.119,305780.518,305876.2,305797.119,308746.48,
flow.Loop,13,2023-01-14T04:17:58.607Z,,,,,,,49610.332,completion,,,,308825.9,308730.119,259103.35,259199.7,259119.787,308746.48,
canvas.Screen,14,2023-01-14T04:18:58.598Z,,,,,,,59992.165,timeout,,,,368817.4,368722.191,308730.119,308826,308746.48,368738.645,
15,2023-01-14T04:20:51.137Z,,,,,,,112617.555,form submission,,,,481356.4,481356.2,368722.191,368817.7,368738.645,481257.018,,
html.Page,16,2023-01-14T04:20:51.637Z,,,,,,,599.482,form submission,,,,481856.6,481856.5,481240.698,481356.4,481257.018,481773.545,
html.Page,17,2023-01-14T04:20:52.120Z,,,,,,,566.355,form submission,,,,482340,482339.9,481762.079,481856.7,481773.545,482256.869,
html.Page,18,2023-01-14T04:20:52.604Z,,,,,,,566.831,form submission,,,,482823.8,482823.7,482240.362,482340.2,482256.869,482740.209,
html.Page,19,2023-01-14T04:20:53.504Z,,,,,,,983.291,form submission,,,,483723.6,483723.5,482723.561,482823.8,482740.209,483639.991,
canvas.Screen,20,2023-01-14T04:20:54.499Z,,,,,,,1000.141,timeout,,,,484718.6,484623.531,483623.625,483723.8,483639.991,484640.132,
canvas.Screen,21_0_0,2023-01-14T04:20:54.999Z,,,b,,,180,499.95,timeout,2.jpg,,,485218.6,485123.293,484623.531,484718.8,484640.132,485140.082,
canvas.Screen,21_0_1,2023-01-14T04:20:55.999Z,,,b,,,180,999.813,timeout,2.jpg,,,486218.6,486123.526,485123.293,485218.8,485140.082,486139.895,
canvas.Screen,21_0_2,2023-01-14T04:20:56.499Z,,,b,,,180,499.973,timeout,2.jpg,,,486718.7,486623.554,486123.526,486218.9,486139.895,486639.868,
canvas.Screen,21_0_3,2023-01-14T04:20:57.685Z,,,b,FALSE,b,180,1263.832,response,2.jpg,d,keypress(j),487904.2,487903.7,486623.554,486718.9,486639.868,487822.841,
canvas.Screen,21_0_4,2023-01-14T04:20:58.182Z,,,b,,,180,500.029,timeout,2.jpg,,,488401.4,488306.185,487806.685,487916.2,487822.841,488322.87,
flow.Sequence,21_0,2023-01-14T04:20:58.182Z,,,b,,,180,3666.053,completion,2.jpg,,,488401.7,488306.185,484623.531,484718.8,484640.132,488322.87,
canvas.Screen,21_1_0,2023-01-14T04:20:58.682Z,,,b,,,45,499.925,timeout,2.jpg,,,488901.9,488806.137,488306.185,488401.9,488322.87,488822.795,
canvas.Screen,21_1_1,2023-01-14T04:20:59.683Z,,,b,,,45,999.88,timeout,2.jpg,,,489902.9,489806.153,488806.137,488902.2,488822.795,489822.675,
canvas.Screen,21_1_2,2023-01-14T04:21:00.182Z,,,b,,,45,499.923,timeout,2.jpg,,,490401.7,490305.968,489806.153,489903.1,489822.675,490322.598,
canvas.Screen,21_1_3,2023-01-14T04:21:00.796Z,,,b,FALSE,b,45,692.202,response,2.jpg,d,keypress(j),491015.5,491014.8,490305.968,490402,490322.598,490948.709,
canvas.Screen,21_1_4,2023-01-14T04:21:01.315Z,,,b,,,45,507.175,timeout,2.jpg,,,491534.5,491439.197,490905.845,491016.1,490948.709,491455.884,
flow.Sequence,21_1,2023-01-14T04:21:01.315Z,,,b,,,45,3116.327,completion,2.jpg,,,491534.8,491439.197,488306.185,488401.8,488322.87,491455.884,
canvas.Screen,21_2_0,2023-01-14T04:21:01.816Z,,,d,,,225,500.048,timeout,2R.jpg,,,492035.8,491939.271,491439.197,491535,491455.884,491955.932,
canvas.Screen,21_2_1,2023-01-14T04:21:02.814Z,,,d,,,225,999.545,timeout,2R.jpg,,,493034,492938.893,491939.271,492035.9,491955.932,492955.477,
canvas.Screen,21_2_2,2023-01-14T04:21:03.314Z,,,d,,,225,500.207,timeout,2R.jpg,,,493534.1,493439.041,492938.893,493034.2,492955.477,493455.684,
canvas.Screen,21_2_3,2023-01-14T04:21:03.944Z,,,d,TRUE,d,225,707.216,response,2R.jpg,d,keypress(j),494163.3,494162.9,493439.041,493534.3,493455.684,494088.814,
canvas.Screen,21_2_4,2023-01-14T04:21:04.448Z,,,d,,,225,500.045,timeout,2R.jpg,,,494667.3,494572.083,494072.414,494170.3,494088.814,494588.859,
flow.Sequence,21_2,2023-01-14T04:21:04.448Z,,,d,,,225,3116.199,completion,2R.jpg,,,494667.6,494572.083,491439.197,491534.9,491455.884,494588.859,
canvas.Screen,21_3_0,2023-01-14T04:21:04.948Z,,,d,,,90,499.903,timeout,2R.jpg,,,495167.2,495072.046,494572.083,494667.8,494588.859,495088.762,
canvas.Screen,21_3_1,2023-01-14T04:21:05.947Z,,,d,,,90,999.838,timeout,2R.jpg,,,496167,496071.866,495072.046,495167.4,495088.762,496088.6,
canvas.Screen,21_3_2,2023-01-14T04:21:06.447Z,,,d,,,90,499.842,timeout,2R.jpg,,,496667.1,496571.958,496071.866,496167.2,496088.6,496588.442,
canvas.Screen,21_3_3,2023-01-14T04:21:07.401Z,,,d,TRUE,d,90,1030.758,response,2R.jpg,d,keypress(j),497620.1,497619.2,496571.958,496667.3,496588.442,497560.048,
canvas.Screen,21_3_4,2023-01-14T04:21:07.914Z,,,d,,,90,494.98,timeout,2R.jpg,,,498133.4,498038.257,497521.741,497631.3,497560.048,498055.028,
flow.Sequence,21_3,2023-01-14T04:21:07.915Z,,,d,,,90,3449.398,completion,2R.jpg,,,498134.3,498038.257,494572.083,494667.7,494588.859,498055.028,
flow.Loop,21,2023-01-14T04:21:07.915Z,,,,,,,13398.125,completion,,,,498134.6,498038.257,484623.531,484718.8,484640.132,498055.028,
html.Page,22,2023-01-14T04:21:10.110Z,,,,,,,2274.772,form submission,,,,500330,500329.8,498038.257,498134.8,498055.028,500237.778,
canvas.Screen,23,2023-01-14T04:21:11.096Z,,,,,,,999.941,timeout,,,,501315.9,501221.091,500223.158,500330.1,500237.778,501237.719,
canvas.Screen,24_0_0,2023-01-14T04:21:11.597Z,,,b,,,45,500.103,timeout,2.jpg,,,501816.4,501721.233,501221.091,501316.1,501237.719,501737.822,
canvas.Screen,24_0_1,2023-01-14T04:21:12.596Z,,,b,,,45,999.765,timeout,2.jpg,,,502816.1,502720.963,501721.233,501816.6,501737.822,502737.587,
canvas.Screen,24_0_2,2023-01-14T04:21:13.098Z,,,b,,,45,500.102,timeout,2.jpg,,,503317.7,503221.031,502720.963,502816.4,502737.587,503237.689,
canvas.Screen,24_0_3,2023-01-14T04:21:14.097Z,,,b,TRUE,b,45,1078.411,response,2.jpg,b,keypress(f),504317,504316.1,503221.031,503317.9,503237.689,504237.467,
canvas.Screen,24_0_4,2023-01-14T04:21:14.596Z,,,b,,,45,499.812,timeout,2.jpg,,,504816,504720.81,504221.007,504327,504237.467,504737.279,
flow.Sequence,24_0,2023-01-14T04:21:14.597Z,,,b,,,45,3483.091,completion,2.jpg,,,504816.4,504720.81,501221.091,501316.1,501237.719,504737.279,
canvas.Screen,24_1_0,2023-01-14T04:21:15.096Z,,,b,,,315,499.998,timeout,2.jpg,,,505315.9,505220.694,504720.81,504816.5,504737.279,505237.277,
canvas.Screen,24_1_1,2023-01-14T04:21:16.096Z,,,b,,,315,999.99,timeout,2.jpg,,,506315.7,506220.491,505220.694,505316.1,505237.277,506237.267,
canvas.Screen,24_1_2,2023-01-14T04:21:16.596Z,,,b,,,315,499.801,timeout,2.jpg,,,506815.7,506720.523,506220.491,506315.9,506237.267,506737.068,
canvas.Screen,24_1_3,2023-01-14T04:21:17.273Z,,,b,TRUE,b,315,755.032,response,2.jpg,b,keypress(f),507492.5,507492.1,506720.523,506816,506737.068,507420.448,
canvas.Screen,24_1_4,2023-01-14T04:21:17.779Z,,,b,,,315,499.95,timeout,2.jpg,,,507998.7,507903.548,507403.653,507498.1,507420.448,507920.398,
flow.Sequence,24_1,2023-01-14T04:21:17.779Z,,,b,,,315,3166.269,completion,2.jpg,,,507999.1,507903.548,504720.81,504816.5,504737.279,507920.398,
canvas.Screen,24_2_0,2023-01-14T04:21:18.279Z,,,d,,,270,499.819,timeout,2R.jpg,,,508498.6,508403.574,507903.548,507999.2,507920.398,508420.217,
canvas.Screen,24_2_1,2023-01-14T04:21:19.279Z,,,d,,,270,999.795,timeout,2R.jpg,,,509498.7,509403.583,508403.574,508498.8,508420.217,509420.012,
canvas.Screen,24_2_2,2023-01-14T04:21:19.779Z,,,d,,,270,500.048,timeout,2R.jpg,,,509998.3,509903.328,509403.583,509498.8,509420.012,509920.06,
canvas.Screen,24_2_3,2023-01-14T04:21:20.594Z,,,d,TRUE,d,270,892.74,response,2R.jpg,d,keypress(j),510813.8,510812.8,509903.328,509998.5,509920.06,510736.652,
canvas.Screen,24_2_4,2023-01-14T04:21:21.096Z,,,d,,,270,499.859,timeout,2R.jpg,,,511315.2,511219.825,510706.942,510814.7,510736.652,511236.511,
flow.Sequence,24_2,2023-01-14T04:21:21.096Z,,,d,,,270,3299.427,completion,2R.jpg,,,511315.5,511219.825,507903.548,507999.2,507920.398,511236.511,
canvas.Screen,24_3_0,2023-01-14T04:21:21.595Z,,,b,,,90,499.982,timeout,2.jpg,,,511815.1,511719.891,511219.825,511315.7,511236.511,511736.493,
canvas.Screen,24_3_1,2023-01-14T04:21:22.595Z,,,b,,,90,999.837,timeout,2.jpg,,,512815,512719.819,511719.891,511815.2,511736.493,512736.33,
canvas.Screen,24_3_2,2023-01-14T04:21:23.095Z,,,b,,,90,499.881,timeout,2.jpg,,,513314.9,513219.631,512719.819,512815.2,512736.33,513236.211,
canvas.Screen,24_3_3,2023-01-14T04:21:23.962Z,,,b,TRUE,b,90,944.889,response,2.jpg,b,keypress(f),514181.5,514181.1,513219.631,513315,513236.211,514102.658,
canvas.Screen,24_3_4,2023-01-14T04:21:24.462Z,,,b,,,90,500.049,timeout,2.jpg,,,514681.3,514586.117,514081.401,514186.7,514102.658,514602.707,
flow.Sequence,24_3,2023-01-14T04:21:24.462Z,,,b,,,90,3349.606,completion,2.jpg,,,514681.6,514586.117,511219.825,511315.6,511236.511,514602.707,
canvas.Screen,24_4_0,2023-01-14T04:21:24.962Z,,,d,,,315,499.964,timeout,2R.jpg,,,515181.3,515086.078,514586.117,514681.7,514602.707,515102.671,
canvas.Screen,24_4_1,2023-01-14T04:21:25.961Z,,,d,,,315,999.903,timeout,2R.jpg,,,516181.1,516085.876,515086.078,515181.5,515102.671,516102.574,
canvas.Screen,24_4_2,2023-01-14T04:21:26.461Z,,,d,,,315,499.96,timeout,2R.jpg,,,516681.1,516585.931,516085.876,516181.2,516102.574,516602.534,
canvas.Screen,24_4_3,2023-01-14T04:21:27.050Z,,,d,TRUE,d,315,665.966,response,2R.jpg,d,keypress(j),517269.3,517268.5,516585.931,516681.4,516602.534,517185.547,
canvas.Screen,24_4_4,2023-01-14T04:21:27.545Z,,,d,,,315,500.26,timeout,2R.jpg,,,517764.4,517669.032,517169.447,517270.7,517185.547,517685.807,
flow.Sequence,24_4,2023-01-14T04:21:27.545Z,,,d,,,315,3066.325,completion,2R.jpg,,,517764.7,517669.032,514586.117,514681.7,514602.707,517685.807,
canvas.Screen,24_5_0,2023-01-14T04:21:28.045Z,,,d,,,90,499.981,timeout,2R.jpg,,,518264.2,518169.012,517669.032,517764.9,517685.807,518185.788,
canvas.Screen,24_5_1,2023-01-14T04:21:29.044Z,,,d,,,90,999.921,timeout,2R.jpg,,,519264.1,519168.914,518169.012,518264.5,518185.788,519185.709,
canvas.Screen,24_5_2,2023-01-14T04:21:29.544Z,,,d,,,90,499.635,timeout,2R.jpg,,,519763.9,519668.765,519168.914,519264.3,519185.709,519685.344,
canvas.Screen,24_5_3,2023-01-14T04:21:30.325Z,,,d,TRUE,d,90,859.356,response,2R.jpg,d,keypress(j),520545.1,520544.7,519668.765,519764,519685.344,520468.489,
canvas.Screen,24_5_4,2023-01-14T04:21:30.828Z,,,d,,,90,500.234,timeout,2R.jpg,,,521047.2,520952.012,520452.033,520550.4,520468.489,520968.723,
flow.Sequence,24_5,2023-01-14T04:21:30.828Z,,,d,,,90,3266.205,completion,2R.jpg,,,521047.5,520952.012,517669.032,517764.9,517685.807,520968.723,
canvas.Screen,24_6_0,2023-01-14T04:21:31.328Z,,,d,,,225,499.73,timeout,2R.jpg,,,521547.2,521451.98,520952.012,521047.6,520968.723,521468.453,
canvas.Screen,24_6_1,2023-01-14T04:21:32.327Z,,,d,,,225,1000.03,timeout,2R.jpg,,,522547.1,522451.784,521451.98,521547.5,521468.453,522468.483,
canvas.Screen,24_6_2,2023-01-14T04:21:32.827Z,,,d,,,225,499.883,timeout,2R.jpg,,,523046.9,522951.694,522451.784,522547.3,522468.483,522968.366,
canvas.Screen,24_6_3,2023-01-14T04:21:33.986Z,,,d,FALSE,d,225,1236.734,response,2R.jpg,b,keypress(f),524206.1,524205.1,522951.694,523047.1,522968.366,524134.768,
canvas.Screen,24_6_4,2023-01-14T04:21:34.495Z,,,d,,,225,500.089,timeout,2R.jpg,,,524714.8,524618.105,524118.851,524213,524134.768,524634.857,
flow.Sequence,24_6,2023-01-14T04:21:34.495Z,,,d,,,225,3649.382,completion,2R.jpg,,,524715.1,524618.105,520952.012,521047.6,520968.723,524634.857,
canvas.Screen,24_7_0,2023-01-14T04:21:34.994Z,,,b,,,180,499.854,timeout,2.jpg,,,525213.3,525118.113,524618.105,524715.2,524634.857,525134.711,
canvas.Screen,24_7_1,2023-01-14T04:21:35.993Z,,,b,,,180,999.826,timeout,2.jpg,,,526213.1,526117.961,525118.113,525213.5,525134.711,526134.537,
canvas.Screen,24_7_2,2023-01-14T04:21:36.493Z,,,b,,,180,500.02,timeout,2.jpg,,,526713.1,526617.866,526117.961,526213.3,526134.537,526634.557,
canvas.Screen,24_7_3,2023-01-14T04:21:37.854Z,,,b,TRUE,b,180,1438.943,response,2.jpg,b,keypress(f),528074,528073.5,526617.866,526713.3,526634.557,528000.984,
canvas.Screen,24_7_4,2023-01-14T04:21:38.360Z,,,b,,,180,499.966,timeout,2.jpg,,,528579.4,528484.168,527984.624,528080.9,528000.984,528500.95,
flow.Sequence,24_7,2023-01-14T04:21:38.360Z,,,b,,,180,3849.311,completion,2.jpg,,,528579.7,528484.168,524618.105,524715.2,524634.857,528500.95,
canvas.Screen,24_8_0,2023-01-14T04:21:38.860Z,,,b,,,270,499.996,timeout,2.jpg,,,529079.3,528984.101,528484.168,528579.9,528500.95,529000.946,
canvas.Screen,24_8_1,2023-01-14T04:21:39.860Z,,,b,,,270,999.778,timeout,2.jpg,,,530079.2,529983.973,528984.101,529079.7,529000.946,530000.724,
canvas.Screen,24_8_2,2023-01-14T04:21:40.360Z,,,b,,,270,500.069,timeout,2.jpg,,,530579.1,530484.034,529983.973,530079.5,530000.724,530500.793,
canvas.Screen,24_8_3,2023-01-14T04:21:41.628Z,,,b,TRUE,b,270,1346.007,response,2.jpg,b,keypress(f),531847.9,531846.8,530484.034,530579.3,530500.793,531766.987,
canvas.Screen,24_8_4,2023-01-14T04:21:42.126Z,,,b,,,270,500.163,timeout,2.jpg,,,532345.7,532250.4,531750.418,531858.2,531766.987,532267.15,
flow.Sequence,24_8,2023-01-14T04:21:42.126Z,,,b,,,270,3749.45,completion,2.jpg,,,532346.1,532250.4,528484.168,528579.8,528500.95,532267.15,
canvas.Screen,24_9_0,2023-01-14T04:21:42.626Z,,,d,,,135,499.837,timeout,2R.jpg,,,532845.6,532750.474,532250.4,532346.3,532267.15,532766.987,
canvas.Screen,24_9_1,2023-01-14T04:21:43.626Z,,,d,,,135,1000.023,timeout,2R.jpg,,,533845.6,533750.306,532750.474,532845.8,532766.987,533767.01,
canvas.Screen,24_9_2,2023-01-14T04:21:44.126Z,,,d,,,135,499.7,timeout,2R.jpg,,,534345.6,534250.294,533750.306,533845.8,533767.01,534266.71,
canvas.Screen,24_9_3,2023-01-14T04:21:45.152Z,,,d,TRUE,d,135,1104.49,response,2R.jpg,d,keypress(j),535371.5,535371.2,534250.294,534345.8,534266.71,535283.144,
canvas.Screen,24_9_4,2023-01-14T04:21:45.642Z,,,d,,,135,500.476,timeout,2R.jpg,,,535861.8,535766.541,535266.51,535372,535283.144,535783.62,
flow.Sequence,24_9,2023-01-14T04:21:45.642Z,,,d,,,135,3499.391,completion,2R.jpg,,,535862.2,535766.541,532250.4,532346.2,532267.15,535783.62,
canvas.Screen,24_10_0,2023-01-14T04:21:46.143Z,,,b,,,0,499.853,timeout,2.jpg,,,536362.7,536266.597,535766.541,535862.3,535783.62,536283.473,
canvas.Screen,24_10_1,2023-01-14T04:21:47.142Z,,,b,,,0,999.929,timeout,2.jpg,,,537361.4,537266.324,536266.597,536362.9,536283.473,537283.402,
canvas.Screen,24_10_2,2023-01-14T04:21:47.642Z,,,b,,,0,500.066,timeout,2.jpg,,,537861.2,537766.213,537266.324,537361.7,537283.402,537783.468,
canvas.Screen,24_10_3,2023-01-14T04:21:48.353Z,,,b,TRUE,b,0,788.432,response,2.jpg,b,keypress(f),538572.3,538571.9,537766.213,537861.4,537783.468,538499.456,
canvas.Screen,24_10_4,2023-01-14T04:21:48.859Z,,,b,,,0,500.231,timeout,2.jpg,,,539078.4,538983.284,538483.064,538579.5,538499.456,538999.687,
flow.Sequence,24_10,2023-01-14T04:21:48.859Z,,,b,,,0,3199.664,completion,2.jpg,,,539078.8,538983.284,535766.541,535862.3,535783.62,538999.687,
canvas.Screen,24_11_0,2023-01-14T04:21:49.359Z,,,b,,,135,499.667,timeout,2.jpg,,,539578.5,539483.251,538983.284,539078.9,538999.687,539499.354,
canvas.Screen,24_11_1,2023-01-14T04:21:50.358Z,,,b,,,135,1000.07,timeout,2.jpg,,,540577.8,540482.673,539483.251,539578.6,539499.354,540499.424,
canvas.Screen,24_11_2,2023-01-14T04:21:50.859Z,,,b,,,135,499.853,timeout,2.jpg,,,541077.8,540982.601,540482.673,540578,540499.424,540999.277,
canvas.Screen,24_11_3,2023-01-14T04:21:51.411Z,,,b,FALSE,b,135,629.923,response,2.jpg,d,keypress(j),541630.1,541629.2,540982.601,541078,540999.277,541549.014,
canvas.Screen,24_11_4,2023-01-14T04:21:51.909Z,,,b,,,135,500.216,timeout,2.jpg,,,542127.8,542032.611,541532.595,541640.7,541549.014,542049.23,
flow.Sequence,24_11,2023-01-14T04:21:51.909Z,,,b,,,135,3032.924,completion,2.jpg,,,542128.1,542032.611,538983.284,539078.9,538999.687,542049.23,
canvas.Screen,24_12_0,2023-01-14T04:21:52.408Z,,,d,,,0,499.806,timeout,2R.jpg,,,542627.6,542532.403,542032.611,542128.3,542049.23,542549.036,
canvas.Screen,24_12_1,2023-01-14T04:21:53.408Z,,,d,,,0,999.908,timeout,2R.jpg,,,543627.6,543532.172,542532.403,542627.8,542549.036,543548.944,
canvas.Screen,24_12_2,2023-01-14T04:21:53.909Z,,,d,,,0,499.728,timeout,2R.jpg,,,544127.7,544032.464,543532.172,543627.7,543548.944,544048.672,
canvas.Screen,24_12_3,2023-01-14T04:21:54.845Z,,,d,TRUE,d,0,1014.728,response,2R.jpg,d,keypress(j),545064.6,545063.4,544032.464,544127.9,544048.672,544981.893,
canvas.Screen,24_12_4,2023-01-14T04:21:55.341Z,,,d,,,0,499.947,timeout,2R.jpg,,,545560.4,545465.259,544965.382,545066.3,544981.893,545481.84,
flow.Sequence,24_12,2023-01-14T04:21:55.341Z,,,d,,,0,3416.029,completion,2R.jpg,,,545560.6,545465.259,542032.611,542128.2,542049.23,545481.84,
canvas.Screen,24_13_0,2023-01-14T04:21:55.841Z,,,d,,,180,500.17,timeout,2R.jpg,,,546060.4,545965.258,545465.259,545560.7,545481.84,545982.01,
canvas.Screen,24_13_1,2023-01-14T04:21:56.842Z,,,d,,,180,999.831,timeout,2R.jpg,,,547061.6,546965.217,545965.258,546060.6,545982.01,546981.841,
canvas.Screen,24_13_2,2023-01-14T04:21:57.341Z,,,d,,,180,499.852,timeout,2R.jpg,,,547560.5,547465.228,546965.217,547061.8,546981.841,547481.693,
canvas.Screen,24_13_3,2023-01-14T04:21:58.489Z,,,d,FALSE,d,180,1224.607,response,2R.jpg,b,keypress(f),548708,548706.3,547465.228,547560.7,547481.693,548631.623,
canvas.Screen,24_13_4,2023-01-14T04:21:58.991Z,,,d,,,180,500.011,timeout,2R.jpg,,,549210.2,549114.966,548614.801,548716.4,548631.623,549131.634,
flow.Sequence,24_13,2023-01-14T04:21:58.991Z,,,d,,,180,3633.126,completion,2R.jpg,,,549210.5,549114.966,545465.259,545560.7,545481.84,549131.634,
canvas.Screen,24_14_0,2023-01-14T04:21:59.491Z,,,b,,,225,499.862,timeout,2.jpg,,,549710,549614.715,549114.966,549210.5,549131.634,549631.496,
canvas.Screen,24_14_1,2023-01-14T04:22:00.491Z,,,b,,,225,999.921,timeout,2.jpg,,,550710,550614.709,549614.715,549710.2,549631.496,550631.417,
canvas.Screen,24_14_2,2023-01-14T04:22:00.991Z,,,b,,,225,499.796,timeout,2.jpg,,,551209.8,551114.729,550614.709,550710.2,550631.417,551131.213,
canvas.Screen,24_14_3,2023-01-14T04:22:01.656Z,,,b,TRUE,b,225,742.987,response,2.jpg,b,keypress(f),551874.8,551874.2,551114.729,551210,551131.213,551797.689,
canvas.Screen,24_14_4,2023-01-14T04:22:02.158Z,,,b,,,225,500.035,timeout,2.jpg,,,552376.7,552281.329,551781.205,551880.3,551797.689,552297.724,
flow.Sequence,24_14,2023-01-14T04:22:02.158Z,,,b,,,225,3149.695,completion,2.jpg,,,552377,552281.329,549114.966,549210.5,549131.634,552297.724,
canvas.Screen,24_15_0,2023-01-14T04:22:02.657Z,,,d,,,45,500.195,timeout,2R.jpg,,,552876.1,552781.036,552281.329,552377.1,552297.724,552797.919,
canvas.Screen,24_15_1,2023-01-14T04:22:03.658Z,,,d,,,45,999.659,timeout,2R.jpg,,,553876.9,553780.857,552781.036,552876.3,552797.919,553797.578,
canvas.Screen,24_15_2,2023-01-14T04:22:04.157Z,,,d,,,45,499.89,timeout,2R.jpg,,,554376.1,554280.841,553780.857,553877,553797.578,554297.468,
canvas.Screen,24_15_3,2023-01-14T04:22:05.193Z,,,d,TRUE,d,45,1113.132,response,2R.jpg,d,keypress(j),555412.4,555410.6,554280.841,554376.4,554297.468,555330.861,
canvas.Screen,24_15_4,2023-01-14T04:22:05.690Z,,,d,,,45,499.702,timeout,2R.jpg,,,555909.1,555813.998,555314.084,555413.7,555330.861,555830.563,
flow.Sequence,24_15,2023-01-14T04:22:05.690Z,,,d,,,45,3516.274,completion,2R.jpg,,,555909.5,555813.998,552281.329,552377,552297.724,555830.563,
flow.Loop,24,2023-01-14T04:22:05.690Z,,,,,,,54576.279,completion,,,,555909.6,555813.998,501221.091,501316.1,501237.719,555830.563,
canvas.Screen,25_0_0,2023-01-14T04:22:06.190Z,,,b,,,135,499.867,timeout,2.jpg,,,556409.1,556313.902,555813.998,555909.8,555830.563,556330.43,
canvas.Screen,25_0_1,2023-01-14T04:22:07.191Z,,,b,,,135,999.884,timeout,2.jpg,,,557410,557313.815,556313.902,556409.4,556330.43,557330.314,
canvas.Screen,25_0_2,2023-01-14T04:22:07.690Z,,,b,,,135,500.114,timeout,2.jpg,,,557909,557813.703,557313.815,557410.3,557330.314,557830.428,
canvas.Screen,25_0_3,2023-01-14T04:22:08.696Z,,,b,TRUE,b,135,1084.272,response,2.jpg,b,keypress(f),558915.7,558914.7,557813.703,557909.3,557830.428,558846.944,
canvas.Screen,25_0_4,2023-01-14T04:22:09.206Z,,,b,,,135,499.834,timeout,2.jpg,,,559425.4,559330.188,558830.021,558925.2,558846.944,559346.778,
flow.Sequence,25_0,2023-01-14T04:22:09.207Z,,,b,,,135,3499.625,completion,2.jpg,,,559425.6,559330.188,555813.998,555909.7,555830.563,559346.778,
canvas.Screen,25_1_0,2023-01-14T04:22:09.706Z,,,d,,,315,499.927,timeout,2R.jpg,,,559925.3,559830.18,559330.188,559425.8,559346.778,559846.705,
canvas.Screen,25_1_1,2023-01-14T04:22:10.706Z,,,d,,,315,1000.003,timeout,2R.jpg,,,560925.1,560829.932,559830.18,559925.5,559846.705,560846.708,
canvas.Screen,25_1_2,2023-01-14T04:22:11.206Z,,,d,,,315,499.745,timeout,2R.jpg,,,561425.3,561330.152,560829.932,560925.3,560846.708,561346.453,
canvas.Screen,25_1_3,2023-01-14T04:22:12.052Z,,,d,TRUE,d,315,924.447,response,2R.jpg,d,keypress(j),562271.6,562270.9,561330.152,561425.4,561346.453,562196.298,
canvas.Screen,25_1_4,2023-01-14T04:22:12.556Z,,,d,,,315,500.187,timeout,2R.jpg,,,562775,562679.798,562179.688,562277,562196.298,562696.485,
flow.Sequence,25_1,2023-01-14T04:22:12.556Z,,,d,,,315,3333.02,completion,2R.jpg,,,562775.2,562679.798,559330.188,559425.8,559346.778,562696.485,
canvas.Screen,25_2_0,2023-01-14T04:22:13.056Z,,,b,,,90,499.72,timeout,2.jpg,,,563275,563179.819,562679.798,562775.4,562696.485,563196.205,
canvas.Screen,25_2_1,2023-01-14T04:22:14.056Z,,,b,,,90,999.801,timeout,2.jpg,,,564274.8,564179.601,563179.819,563275.3,563196.205,564196.006,
canvas.Screen,25_2_2,2023-01-14T04:22:14.557Z,,,b,,,90,500.037,timeout,2.jpg,,,564776,564679.463,564179.601,564275,564196.006,564696.043,
canvas.Screen,25_2_3,2023-01-14T04:22:15.802Z,,,b,TRUE,b,90,1323.957,response,2.jpg,b,keypress(f),566020.7,566020,564679.463,564776.5,564696.043,565946.04,
canvas.Screen,25_2_4,2023-01-14T04:22:16.305Z,,,b,,,90,499.803,timeout,2.jpg,,,566524.5,566429.348,565929.339,566027.8,565946.04,566445.843,
flow.Sequence,25_2,2023-01-14T04:22:16.306Z,,,b,,,90,3732.863,completion,2.jpg,,,566524.9,566429.348,562679.798,562775.4,562696.485,566445.843,
canvas.Screen,25_3_0,2023-01-14T04:22:16.805Z,,,b,,,0,500.01,timeout,2.jpg,,,567024.4,566929.268,566429.348,566525.1,566445.843,566945.853,
canvas.Screen,25_3_1,2023-01-14T04:22:17.805Z,,,b,,,0,999.916,timeout,2.jpg,,,568024.4,567929.132,566929.268,567024.7,566945.853,567945.769,
canvas.Screen,25_3_2,2023-01-14T04:22:18.306Z,,,b,,,0,499.93,timeout,2.jpg,,,568525.3,568429.12,567929.132,568024.6,567945.769,568445.699,
canvas.Screen,25_3_3,2023-01-14T04:22:19.250Z,,,b,TRUE,b,0,1022.501,response,2.jpg,b,keypress(f),569469.2,569468.2,568429.12,568525.5,568445.699,569395.88,
canvas.Screen,25_3_4,2023-01-14T04:22:19.755Z,,,b,,,0,499.726,timeout,2.jpg,,,569974,569878.881,569362.533,569472,569395.88,569895.606,
flow.Sequence,25_3,2023-01-14T04:22:19.755Z,,,b,,,0,3433.038,completion,2.jpg,,,569974.4,569878.881,566429.348,566525,566445.843,569895.606,
canvas.Screen,25_4_0,2023-01-14T04:22:20.255Z,,,b,,,315,500.006,timeout,2.jpg,,,570473.7,570378.702,569878.881,569974.5,569895.606,570395.612,
canvas.Screen,25_4_1,2023-01-14T04:22:21.255Z,,,b,,,315,999.553,timeout,2.jpg,,,571473.7,571378.56,570378.702,570474,570395.612,571395.165,
canvas.Screen,25_4_2,2023-01-14T04:22:21.755Z,,,b,,,315,499.883,timeout,2.jpg,,,571973.7,571878.56,571378.56,571473.9,571395.165,571895.048,
canvas.Screen,25_4_3,2023-01-14T04:22:23.044Z,,,b,TRUE,b,315,1367.852,response,2.jpg,b,keypress(f),573263.4,573262.9,571878.56,571973.9,571895.048,573178.174,
canvas.Screen,25_4_4,2023-01-14T04:22:23.538Z,,,b,,,315,500.155,timeout,2.jpg,,,573756.9,573661.608,573161.534,573268.8,573178.174,573678.329,
flow.Sequence,25_4,2023-01-14T04:22:23.538Z,,,b,,,315,3766.002,completion,2.jpg,,,573757.2,573661.608,569878.881,569974.5,569895.606,573678.329,
canvas.Screen,25_5_0,2023-01-14T04:22:24.038Z,,,d,,,0,499.978,timeout,2R.jpg,,,574256.8,574161.632,573661.608,573757.4,573678.329,574178.307,
canvas.Screen,25_5_1,2023-01-14T04:22:25.038Z,,,d,,,0,999.722,timeout,2R.jpg,,,575256.6,575161.504,574161.632,574257,574178.307,575178.029,
canvas.Screen,25_5_2,2023-01-14T04:22:25.537Z,,,d,,,0,500.029,timeout,2R.jpg,,,575756.5,575661.371,575161.504,575256.8,575178.029,575678.058,
canvas.Screen,25_5_3,2023-01-14T04:22:26.781Z,,,d,TRUE,d,0,1320.642,response,2R.jpg,d,keypress(j),576999.8,576998.7,575661.371,575756.7,575678.058,576927.698,
canvas.Screen,25_5_4,2023-01-14T04:22:27.287Z,,,d,,,0,500.114,timeout,2R.jpg,,,577506.5,577411.226,576910.019,577013.5,576927.698,577427.812,
flow.Sequence,25_5,2023-01-14T04:22:27.288Z,,,d,,,0,3732.897,completion,2R.jpg,,,577506.8,577411.226,573661.608,573757.3,573678.329,577427.812,
canvas.Screen,25_6_0,2023-01-14T04:22:27.787Z,,,b,,,270,499.861,timeout,2.jpg,,,578005.8,577910.995,577411.226,577507,577427.812,577927.673,
canvas.Screen,25_6_1,2023-01-14T04:22:28.787Z,,,b,,,270,999.933,timeout,2.jpg,,,579006.2,578910.959,577910.995,578006,577927.673,578927.606,
