sender,sender_type,sender_id,timestamp,meta,,answer,correct,correctResponse,deg,duration,ended_on,image,response,response_action,time_commit,time_end,time_render,time_run,time_show,time_switch,url
イントロ1,html.Page,0,2023-01-06T04:14:07.695Z,"{""labjs_version"":""20.2.4"",""labjs_build"":{""flavor"":""development"",""commit"":""f5b4a49f956347addd546a832a3327688c2c0fef""},""location"":""https://labjs.felixhenninger.com/api/labjs_preview/index.html"",""userAgent"":""Mozilla/5.0 (Macintosh; Intel Mac OS X 10_15_7) AppleWebKit/537.36 (KHTML, like Gecko) Chrome/108.0.0.0 Safari/537.36"",""platform"":""MacIntel"",""language"":""ja"",""locale"":""ja"",""timeZone"":""Asia/Tokyo"",""timezoneOffset"":-540,""screen_width"":1440,""screen_height"":900,""scroll_width"":1440,""scroll_height"":740,""window_innerWidth"":1440,""window_innerHeight"":788,""devicePixelRatio"":2}",,,,,,39325.48200000596,form submission,,,,41448.40000000596,41447.90000000596,1672.436,2130.2000000029802,2122.418,41438.828,{}
イントロ2,html.Page,1,2023-01-06T04:14:18.841Z,,,,,,,11155.171999999999,form submission,,,,52594.40000000596,52594,41422.162,41448.90000000596,41438.828,52622.007,
イントロ3,html.Page,2,2023-01-06T04:14:34.016Z,,,,,,,15147.292999997022,form submission,,,,67769.40000000596,67769.29999999702,52605.341,52595,52622.007,67788.453,
イントロ4,html.Page,3,2023-01-06T04:14:55.812Z,,,,,,,21776.447000005966,form submission,,,,89565.10000000894,89564.90000000596,67771.787,67769.60000000894,67788.453,89588.164,
イントロ5,html.Page,4,2023-01-06T04:15:09.405Z,,,,,,,13569.335999999996,form submission,,,,103157.79999999702,103157.5,89571.498,89565.20000000298,89588.164,103187.964,
できるだけ早く正確に,canvas.Screen,5,2023-01-06T04:15:10.425Z,,,,,,,1016.6259999999893,timeout,,,,104177.40000000596,104171.258,103154.632,103158,103187.964,104204.59,
空白時間1 (0.5秒),canvas.Screen,6_0_0,2023-01-06T04:15:10.938Z,,,d,,,315,499.9800000000105,timeout,eR.jpg,,,104690.60000000894,104687.904,104171.258,104177.79999999702,104204.59,104704.57,
注視(1秒),canvas.Screen,6_0_1,2023-01-06T04:15:11.937Z,,,d,,,315,1049.9579999999987,timeout,eR.jpg,,,105690.10000000894,105687.864,104687.904,104690.90000000596,104704.57,105754.528,
空白時間2 (0.5秒),canvas.Screen,6_0_2,2023-01-06T04:15:12.489Z,,,d,,,315,499.9799999999959,timeout,eR.jpg,,,106241.20000000298,106237.842,105687.864,105690.40000000596,105754.528,106254.508,
刺激提示(練習),canvas.Screen,6_0_3,2023-01-06T04:15:13.803Z,,,d,false,d,315,1292.2919999970181,response,eR.jpg,b,keypress(f),107555.90000000596,107546.79999999702,106237.842,106241.70000000298,106254.508,107571.122,
フィードバック(0.5秒),canvas.Screen,6_0_4,2023-01-06T04:15:14.303Z,,,d,,,315,499.9799999999959,timeout,eR.jpg,,,108056,108054.436,107554.456,107557.70000000298,107571.122,108071.102,
トライアル,flow.Sequence,6_0,2023-01-06T04:15:14.304Z,,,d,,,315,3849.846000000005,completion,eR.jpg,,,108056.40000000596,108054.436,104171.258,104177.70000000298,104204.59,108071.102,
空白時間1 (0.5秒),canvas.Screen,6_1_0,2023-01-06T04:15:14.804Z,,,b,,,270,499.9799999999959,timeout,e.jpg,,,108556.40000000596,108554.416,108054.436,108056.60000000894,108071.102,108571.082,
注視(1秒),canvas.Screen,6_1_1,2023-01-06T04:15:15.804Z,,,b,,,270,999.9600000000064,timeout,e.jpg,,,109556.40000000596,109554.376,108554.416,108556.60000000894,108571.082,109571.042,
空白時間2 (0.5秒),canvas.Screen,6_1_2,2023-01-06T04:15:16.304Z,,,b,,,270,499.9799999999959,timeout,e.jpg,,,110056.29999999702,110054.356,109554.376,109556.60000000894,109571.042,110071.022,
刺激提示(練習),canvas.Screen,6_1_3,2023-01-06T04:15:17.197Z,,,b,true,b,270,872.678000002983,response,e.jpg,b,keypress(f),110949.79999999702,110943.70000000298,110054.356,110056.5,110071.022,111004.318,
フィードバック(0.5秒),canvas.Screen,6_1_4,2023-01-06T04:15:17.738Z,,,b,,,270,499.9799999999959,timeout,e.jpg,,,111490.40000000596,111487.632,110954.32,110951.79999999702,111004.318,111504.298,
トライアル,flow.Sequence,6_1,2023-01-06T04:15:17.738Z,,,b,,,270,3416.529999999999,completion,e.jpg,,,111490.90000000596,111487.632,108054.436,108056.60000000894,108071.102,111504.298,
空白時間1 (0.5秒),canvas.Screen,6_2_0,2023-01-06T04:15:18.238Z,,,d,,,135,533.3120000000054,timeout,eR.jpg,,,111990.70000000298,111987.612,111487.632,111491.20000000298,111504.298,112037.61,
注視(1秒),canvas.Screen,6_2_1,2023-01-06T04:15:19.270Z,,,d,,,135,1016.6260000000038,timeout,eR.jpg,,,113022.70000000298,113020.904,111987.612,111990.90000000596,112037.61,113054.236,
空白時間2 (0.5秒),canvas.Screen,6_2_2,2023-01-06T04:15:19.787Z,,,d,,,135,533.5910000000003,timeout,eR.jpg,,,113539.10000000894,113537.829,113020.904,113022.90000000596,113054.236,113587.827,
刺激提示(練習),canvas.Screen,6_2_3,2023-01-06T04:15:21.750Z,,,d,true,d,135,1908.8730000029755,response,eR.jpg,d,keypress(j),115502.10000000894,115496.70000000298,113537.829,113539.5,113587.827,115521.083,
フィードバック(0.5秒),canvas.Screen,6_2_4,2023-01-06T04:15:22.254Z,,,d,,,135,499.9799999999959,timeout,eR.jpg,,,116006.40000000596,116004.397,115504.417,115518.5,115521.083,116021.063,
トライアル,flow.Sequence,6_2,2023-01-06T04:15:22.254Z,,,d,,,135,4500.099000000002,completion,eR.jpg,,,116006.60000000894,116004.397,111487.632,111491.20000000298,111504.298,116021.063,
空白時間1 (0.5秒),canvas.Screen,6_3_0,2023-01-06T04:15:22.754Z,,,b,,,180,533.3120000000054,timeout,e.jpg,,,116506.90000000596,116504.377,116004.397,116006.70000000298,116021.063,116554.375,
注視(1秒),canvas.Screen,6_3_1,2023-01-06T04:15:23.787Z,,,b,,,180,999.9600000000064,timeout,e.jpg,,,117539.40000000596,117537.669,116504.377,116507,116554.375,117554.335,
空白時間2 (0.5秒),canvas.Screen,6_3_2,2023-01-06T04:15:24.288Z,,,b,,,180,533.3119999999908,timeout,e.jpg,,,118040.29999999702,118037.649,117537.669,117539.70000000298,117554.335,118087.647,
刺激提示(練習),canvas.Screen,6_3_3,2023-01-06T04:15:26.100Z,,,b,false,b,180,1760.6529999970226,response,e.jpg,d,keypress(j),119852.70000000298,119848.29999999702,118037.649,118041,118087.647,119870.909,
フィードバック(0.5秒),canvas.Screen,6_3_4,2023-01-06T04:15:26.604Z,,,b,,,180,499.9799999999959,timeout,e.jpg,,,120356.29999999702,120354.223,119854.243,119866.70000000298,119870.909,120370.889,
トライアル,flow.Sequence,6_3,2023-01-06T04:15:26.604Z,,,b,,,180,4333.1600000000035,completion,e.jpg,,,120356.5,120354.223,116004.397,116006.70000000298,116021.063,120370.889,
練習試行(e),flow.Loop,6,2023-01-06T04:15:26.604Z,,,,,,,16149.633000000002,completion,,,,120356.60000000894,120354.223,104171.258,104177.60000000894,104204.59,120370.889,
イントロ6,html.Page,7,2023-01-06T04:15:41.717Z,,,,,,,15098.211000008945,form submission,,,,135469.40000000596,135469.10000000894,120354.223,120356.70000000298,120370.889,135470.854,
できるだけ早く正確に,canvas.Screen,8,2023-01-06T04:15:42.703Z,,,,,,,1016.6260000000184,timeout,,,,136455.60000000894,136454.148,135454.188,135469.60000000894,135470.854,136487.48,
空白時間1 (0.5秒),canvas.Screen,9_0_0,2023-01-06T04:15:43.221Z,,,d,,,180,499.9799999999814,timeout,eR.jpg,,,136973.10000000894,136970.794,136454.148,136455.90000000596,136487.48,136987.46,
注視(1秒),canvas.Screen,9_0_1,2023-01-06T04:15:44.220Z,,,d,,,180,999.960000000021,timeout,eR.jpg,,,137972.5,137970.754,136970.794,136973.40000000596,136987.46,137987.42,
空白時間2 (0.5秒),canvas.Screen,9_0_2,2023-01-06T04:15:44.737Z,,,d,,,180,499.9799999999814,timeout,eR.jpg,,,138489.40000000596,138454.068,137970.754,137972.60000000894,137987.42,138487.4,
刺激提示,canvas.Screen,9_0_3,2023-01-06T04:15:45.856Z,,,d,true,d,180,1116.0000000059663,response,eR.jpg,d,keypress(j),139607.79999999702,139603.40000000596,138454.068,138489.60000000894,138487.4,139654.02,
フィードバック(0.5秒),canvas.Screen,9_0_4,2023-01-06T04:15:46.389Z,,,d,,,180,533.3120000000054,timeout,eR.jpg,,,140140.79999999702,140137.334,139620.688,139609.5,139654.02,140187.332,
トライアル,flow.Sequence,9_0,2023-01-06T04:15:46.389Z,,,d,,,180,3649.853999999992,completion,eR.jpg,,,140141.29999999702,140137.334,136454.148,136455.90000000596,136487.48,140187.332,
空白時間1 (0.5秒),canvas.Screen,9_1_0,2023-01-06T04:15:46.920Z,,,b,,,0,499.9800000000105,timeout,e.jpg,,,140672.20000000298,140670.646,140137.334,140141.5,140187.332,140687.312,
注視(1秒),canvas.Screen,9_1_1,2023-01-06T04:15:47.920Z,,,b,,,0,999.9599999999919,timeout,e.jpg,,,141672.60000000894,141670.606,140670.646,140672.40000000596,140687.312,141687.272,
空白時間2 (0.5秒),canvas.Screen,9_1_2,2023-01-06T04:15:48.420Z,,,b,,,0,533.3120000000054,timeout,e.jpg,,,142171.90000000596,142170.586,141670.606,141672.90000000596,141687.272,142220.584,
刺激提示,canvas.Screen,9_1_3,2023-01-06T04:15:49.050Z,,,b,true,b,0,575.7159999970172,response,e.jpg,b,keypress(f),142802.29999999702,142796.29999999702,142170.586,142172.10000000894,142220.584,142820.56,
フィードバック(0.5秒),canvas.Screen,9_1_4,2023-01-06T04:15:49.553Z,,,b,,,0,533.3120000000054,timeout,e.jpg,,,143305.40000000596,143303.874,142803.894,142803.90000000596,142820.56,143353.872,
トライアル,flow.Sequence,9_1,2023-01-06T04:15:49.554Z,,,b,,,0,3116.542000000016,completion,e.jpg,,,143305.60000000894,143303.874,140137.334,140141.5,140187.332,143353.872,
空白時間1 (0.5秒),canvas.Screen,9_2_0,2023-01-06T04:15:50.086Z,,,d,,,225,499.9800000000105,timeout,eR.jpg,,,143838.40000000596,143837.186,143303.874,143305.79999999702,143353.872,143853.852,
注視(1秒),canvas.Screen,9_2_1,2023-01-06T04:15:51.087Z,,,d,,,225,999.9599999999919,timeout,eR.jpg,,,144839.5,144837.146,143837.186,143838.70000000298,143853.852,144853.812,
空白時間2 (0.5秒),canvas.Screen,9_2_2,2023-01-06T04:15:51.587Z,,,d,,,225,533.3120000000054,timeout,eR.jpg,,,145339.60000000894,145337.126,144837.146,144839.70000000298,144853.812,145387.124,
刺激提示,canvas.Screen,9_2_3,2023-01-06T04:15:52.697Z,,,d,true,d,225,1055.0760000029695,response,eR.jpg,d,keypress(j),146448.79999999702,146442.20000000298,145337.126,145397.90000000596,145387.124,146470.414,
フィードバック(0.5秒),canvas.Screen,9_2_4,2023-01-06T04:15:53.203Z,,,d,,,225,533.3120000000054,timeout,eR.jpg,,,146955.5,146953.728,146453.748,146466.40000000596,146470.414,147003.726,
トライアル,flow.Sequence,9_2,2023-01-06T04:15:53.204Z,,,d,,,225,3599.8559999999998,completion,eR.jpg,,,146955.60000000894,146953.728,143303.874,143305.70000000298,143353.872,147003.726,
空白時間1 (0.5秒),canvas.Screen,9_3_0,2023-01-06T04:15:53.738Z,,,b,,,225,499.9800000000105,timeout,e.jpg,,,147489.5,147487.04,146953.728,146955.70000000298,147003.726,147503.706,
注視(1秒),canvas.Screen,9_3_1,2023-01-06T04:15:54.737Z,,,b,,,225,1033.2919999999867,timeout,e.jpg,,,148488.70000000298,148487,147487.04,147489.79999999702,147503.706,148536.998,
空白時間2 (0.5秒),canvas.Screen,9_3_2,2023-01-06T04:15:55.271Z,,,b,,,225,499.9800000000105,timeout,e.jpg,,,149022.79999999702,149020.312,148487,148489,148536.998,149036.978,
刺激提示,canvas.Screen,9_3_3,2023-01-06T04:15:55.985Z,,,b,true,b,225,691.2220000029774,response,e.jpg,b,keypress(f),149736.90000000596,149728.20000000298,149020.312,149023,149036.978,149753.616,
フィードバック(0.5秒),canvas.Screen,9_3_4,2023-01-06T04:15:56.487Z,,,b,,,225,533.3120000000054,timeout,e.jpg,,,150239.29999999702,150236.93,149736.95,149753.90000000596,149753.616,150286.928,
トライアル,flow.Sequence,9_3,2023-01-06T04:15:56.488Z,,,b,,,225,3233.203999999998,completion,e.jpg,,,150239.70000000298,150236.93,146953.728,146955.70000000298,147003.726,150286.928,
空白時間1 (0.5秒),canvas.Screen,9_4_0,2023-01-06T04:15:57.021Z,,,b,,,90,499.9799999999814,timeout,e.jpg,,,150773.10000000894,150770.242,150236.93,150240,150286.928,150786.908,
注視(1秒),canvas.Screen,9_4_1,2023-01-06T04:15:58.019Z,,,b,,,90,999.9599999999919,timeout,e.jpg,,,151771.40000000596,151770.202,150770.242,150774.10000000894,150786.908,151786.868,
空白時間2 (0.5秒),canvas.Screen,9_4_2,2023-01-06T04:15:58.521Z,,,b,,,90,499.9800000000105,timeout,e.jpg,,,152273,152270.182,151770.202,151771.70000000298,151786.868,152286.848,
刺激提示,canvas.Screen,9_4_3,2023-01-06T04:15:59.276Z,,,b,false,b,90,735.1520000000019,response,e.jpg,d,keypress(j),153028.29999999702,153022,152270.182,152274,152286.848,153070.15,
フィードバック(0.5秒),canvas.Screen,9_4_4,2023-01-06T04:15:59.803Z,,,b,,,90,533.3120000000054,timeout,e.jpg,,,153555,153553.464,153036.818,153030.10000000894,153070.15,153603.462,
トライアル,flow.Sequence,9_4,2023-01-06T04:15:59.803Z,,,b,,,90,3266.535999999993,completion,e.jpg,,,153555.20000000298,153553.464,150236.93,150239.90000000596,150286.928,153603.462,
空白時間1 (0.5秒),canvas.Screen,9_5_0,2023-01-06T04:16:00.337Z,,,b,,,315,499.9800000000105,timeout,e.jpg,,,154088.79999999702,154086.776,153553.464,153555.29999999702,153603.462,154103.442,
注視(1秒),canvas.Screen,9_5_1,2023-01-06T04:16:01.336Z,,,b,,,315,1033.2919999999867,timeout,e.jpg,,,155088.29999999702,155086.736,154086.776,154089,154103.442,155136.734,
空白時間2 (0.5秒),canvas.Screen,9_5_2,2023-01-06T04:16:01.870Z,,,b,,,315,500.5109999999986,timeout,e.jpg,,,155622.40000000596,155620.579,155086.736,155088.60000000894,155136.734,155637.245,
刺激提示,canvas.Screen,9_5_3,2023-01-06T04:16:02.776Z,,,b,true,b,315,883.5549999970244,response,e.jpg,b,keypress(f),156528.10000000894,156520.79999999702,155620.579,155622.60000000894,155637.245,156553.875,
フィードバック(0.5秒),canvas.Screen,9_5_4,2023-01-06T04:16:03.328Z,,,b,,,315,533.3120000000054,timeout,e.jpg,,,157079.79999999702,157070.521,156537.209,156544,156553.875,157087.187,
トライアル,flow.Sequence,9_5,2023-01-06T04:16:03.328Z,,,b,,,315,3467.0590000000084,completion,e.jpg,,,157080,157070.521,153553.464,153555.29999999702,153603.462,157087.187,
空白時間1 (0.5秒),canvas.Screen,9_6_0,2023-01-06T04:16:03.820Z,,,d,,,90,499.9799999999814,timeout,eR.jpg,,,157571.90000000596,157570.501,157070.521,157080.20000000298,157087.187,157587.167,
注視(1秒),canvas.Screen,9_6_1,2023-01-06T04:16:04.822Z,,,d,,,90,1033.2920000000158,timeout,eR.jpg,,,158573.70000000298,158570.461,157570.501,157572,157587.167,158620.459,
空白時間2 (0.5秒),canvas.Screen,9_6_2,2023-01-06T04:16:05.353Z,,,d,,,90,499.9800000000105,timeout,eR.jpg,,,159105.40000000596,159103.773,158570.461,158573.90000000596,158620.459,159120.439,
刺激提示,canvas.Screen,9_6_3,2023-01-06T04:16:06.309Z,,,d,true,d,90,933.2610000029672,response,eR.jpg,d,keypress(j),160060.79999999702,160053.70000000298,159103.773,159105.5,159120.439,160087.067,
フィードバック(0.5秒),canvas.Screen,9_6_4,2023-01-06T04:16:06.821Z,,,d,,,90,533.3119999999763,timeout,eR.jpg,,,160572.79999999702,160570.381,160070.401,160077.10000000894,160087.067,160620.379,
トライアル,flow.Sequence,9_6,2023-01-06T04:16:06.822Z,,,d,,,90,3483.1939999999886,completion,eR.jpg,,,160573.90000000596,160570.381,157070.521,157080.20000000298,157087.187,160620.379,
空白時間1 (0.5秒),canvas.Screen,9_7_0,2023-01-06T04:16:07.354Z,,,b,,,45,499.9800000000105,timeout,e.jpg,,,161106.10000000894,161103.693,160570.381,160574.10000000894,160620.379,161120.359,
注視(1秒),canvas.Screen,9_7_1,2023-01-06T04:16:08.354Z,,,b,,,45,999.9599999999919,timeout,e.jpg,,,162105.29999999702,162103.653,161103.693,161106.29999999702,161120.359,162120.319,
空白時間2 (0.5秒),canvas.Screen,9_7_2,2023-01-06T04:16:08.853Z,,,b,,,45,533.3120000000054,timeout,e.jpg,,,162604.79999999702,162603.633,162103.653,162105.60000000894,162120.319,162653.631,
刺激提示,canvas.Screen,9_7_3,2023-01-06T04:16:09.724Z,,,b,true,b,45,815.1689999970258,response,e.jpg,b,keypress(f),163475.79999999702,163468.79999999702,162603.633,162604.90000000596,162653.631,163503.597,
フィードバック(0.5秒),canvas.Screen,9_7_4,2023-01-06T04:16:10.238Z,,,b,,,45,499.9799999999814,timeout,e.jpg,,,163989.29999999702,163986.911,163486.931,163477,163503.597,164003.577,
トライアル,flow.Sequence,9_7,2023-01-06T04:16:10.238Z,,,b,,,45,3366.5320000000065,completion,e.jpg,,,163989.60000000894,163986.911,160570.381,160574,160620.379,164003.577,
空白時間1 (0.5秒),canvas.Screen,9_8_0,2023-01-06T04:16:10.751Z,,,d,,,135,583.3099999999977,timeout,eR.jpg,,,164502.5,164486.891,163986.911,163989.70000000298,164003.577,164586.887,
注視(1秒),canvas.Screen,9_8_1,2023-01-06T04:16:11.820Z,,,d,,,135,999.960000000021,timeout,eR.jpg,,,165572,165570.181,164486.891,164502.5,164586.887,165586.847,
空白時間2 (0.5秒),canvas.Screen,9_8_2,2023-01-06T04:16:12.320Z,,,d,,,135,533.3120000000054,timeout,eR.jpg,,,166071.5,166070.161,165570.181,165572.10000000894,165586.847,166120.159,
刺激提示,canvas.Screen,9_8_3,2023-01-06T04:16:13.144Z,,,d,true,d,135,766.541000002966,response,eR.jpg,d,keypress(j),166895.90000000596,166886.70000000298,166070.161,166071.70000000298,166120.159,166920.127,
フィードバック(0.5秒),canvas.Screen,9_8_4,2023-01-06T04:16:13.654Z,,,d,,,135,499.9799999999814,timeout,eR.jpg,,,167405.40000000596,167403.441,166903.461,166913.79999999702,166920.127,167420.107,
トライアル,flow.Sequence,9_8,2023-01-06T04:16:13.654Z,,,d,,,135,3399.8640000000014,completion,eR.jpg,,,167405.60000000894,167403.441,163986.911,163989.70000000298,164003.577,167420.107,
空白時間1 (0.5秒),canvas.Screen,9_9_0,2023-01-06T04:16:14.153Z,,,d,,,270,499.9800000000105,timeout,eR.jpg,,,167904.70000000298,167903.421,167403.441,167405.70000000298,167420.107,167920.087,
注視(1秒),canvas.Screen,9_9_1,2023-01-06T04:16:15.154Z,,,d,,,270,1016.6259999999893,timeout,eR.jpg,,,168905.29999999702,168903.381,167903.421,167904.90000000596,167920.087,168936.713,
空白時間2 (0.5秒),canvas.Screen,9_9_2,2023-01-06T04:16:15.671Z,,,d,,,270,499.9800000000105,timeout,eR.jpg,,,169422.40000000596,169420.027,168903.381,168905.5,168936.713,169436.693,
刺激提示,canvas.Screen,9_9_3,2023-01-06T04:16:16.828Z,,,d,true,d,270,1136.6069999970205,response,eR.jpg,d,keypress(j),170579.20000000298,170573.29999999702,169420.027,169422.70000000298,169436.693,170603.313,
フィードバック(0.5秒),canvas.Screen,9_9_4,2023-01-06T04:16:17.337Z,,,d,,,270,499.9800000000105,timeout,eR.jpg,,,171089.10000000894,171086.627,170586.647,170596.70000000298,170603.313,171103.293,
トライアル,flow.Sequence,9_9,2023-01-06T04:16:17.338Z,,,d,,,270,3666.5200000000186,completion,eR.jpg,,,171089.5,171086.627,167403.441,167405.70000000298,167420.107,171103.293,
空白時間1 (0.5秒),canvas.Screen,9_10_0,2023-01-06T04:16:17.838Z,,,d,,,45,499.9799999999814,timeout,eR.jpg,,,171589.29999999702,171586.607,171086.627,171089.79999999702,171103.293,171603.273,
注視(1秒),canvas.Screen,9_10_1,2023-01-06T04:16:18.838Z,,,d,,,45,999.960000000021,timeout,eR.jpg,,,172589.40000000596,172586.567,171586.607,171589.60000000894,171603.273,172603.233,
空白時間2 (0.5秒),canvas.Screen,9_10_2,2023-01-06T04:16:19.337Z,,,d,,,45,533.3120000000054,timeout,eR.jpg,,,173088.90000000596,173086.547,172586.567,172589.60000000894,172603.233,173136.545,
刺激提示,canvas.Screen,9_10_3,2023-01-06T04:16:20.561Z,,,d,false,d,45,1171.6550000029674,response,eR.jpg,b,keypress(f),174312.60000000894,174308.20000000298,173086.547,173089.20000000298,173136.545,174336.497,
フィードバック(0.5秒),canvas.Screen,9_10_4,2023-01-06T04:16:21.053Z,,,d,,,45,483.31399999998393,timeout,eR.jpg,,,174804.90000000596,174786.479,174319.831,174328,174336.497,174819.811,
トライアル,flow.Sequence,9_10,2023-01-06T04:16:21.053Z,,,d,,,45,3683.185999999987,completion,eR.jpg,,,174805.10000000894,174786.479,171086.627,171089.70000000298,171103.293,174819.811,
空白時間1 (0.5秒),canvas.Screen,9_11_0,2023-01-06T04:16:21.553Z,,,b,,,135,499.9800000000105,timeout,e.jpg,,,175304.70000000298,175303.125,174786.479,174805.20000000298,174819.811,175319.791,
注視(1秒),canvas.Screen,9_11_1,2023-01-06T04:16:22.554Z,,,b,,,135,1000.4880000000121,timeout,e.jpg,,,176306.20000000298,176303.613,175303.125,175304.79999999702,175319.791,176320.279,
空白時間2 (0.5秒),canvas.Screen,9_11_2,2023-01-06T04:16:23.054Z,,,b,,,135,499.9799999999814,timeout,e.jpg,,,176805.20000000298,176803.593,176303.613,176306.29999999702,176320.279,176820.259,
刺激提示,canvas.Screen,9_11_3,2023-01-06T04:16:24.069Z,,,b,true,b,135,995.1410000059695,response,e.jpg,b,keypress(f),177820.60000000894,177815.40000000596,176803.593,176805.40000000596,176820.259,177836.885,
フィードバック(0.5秒),canvas.Screen,9_11_4,2023-01-06T04:16:24.571Z,,,b,,,135,499.9799999999814,timeout,e.jpg,,,178322.79999999702,178320.199,177820.219,177835.90000000596,177836.885,178336.865,
トライアル,flow.Sequence,9_11,2023-01-06T04:16:24.572Z,,,b,,,135,3500.3880000000063,completion,e.jpg,,,178323.29999999702,178320.199,174786.479,174805.20000000298,174819.811,178336.865,
空白時間1 (0.5秒),canvas.Screen,9_12_0,2023-01-06T04:16:25.070Z,,,d,,,315,499.9800000000105,timeout,eR.jpg,,,178821.20000000298,178820.179,178320.199,178323.5,178336.865,178836.845,
注視(1秒),canvas.Screen,9_12_1,2023-01-06T04:16:26.070Z,,,d,,,315,999.9599999999919,timeout,eR.jpg,,,179822,179820.139,178820.179,178821.40000000596,178836.845,179836.805,
空白時間2 (0.5秒),canvas.Screen,9_12_2,2023-01-06T04:16:26.570Z,,,d,,,315,533.3120000000054,timeout,eR.jpg,,,180321.90000000596,180320.119,179820.139,179822.20000000298,179836.805,180370.117,
刺激提示,canvas.Screen,9_12_3,2023-01-06T04:16:27.418Z,,,d,true,d,315,795.0830000029819,response,eR.jpg,d,keypress(j),181169.40000000596,181165.20000000298,180320.119,180322.10000000894,180370.117,181186.751,
フィードバック(0.5秒),canvas.Screen,9_12_4,2023-01-06T04:16:27.921Z,,,d,,,315,533.3120000000054,timeout,eR.jpg,,,181672.60000000894,181670.065,181170.085,181170.40000000596,181186.751,181720.063,
トライアル,flow.Sequence,9_12,2023-01-06T04:16:27.922Z,,,d,,,315,3333.2000000000116,completion,eR.jpg,,,181673.10000000894,181670.065,178320.199,178323.40000000596,178336.865,181720.063,
空白時間1 (0.5秒),canvas.Screen,9_13_0,2023-01-06T04:16:28.454Z,,,b,,,180,499.9800000000105,timeout,e.jpg,,,182205.29999999702,182203.377,181670.065,181673.40000000596,181720.063,182220.043,
注視(1秒),canvas.Screen,9_13_1,2023-01-06T04:16:29.454Z,,,b,,,180,999.9599999999919,timeout,e.jpg,,,183205.20000000298,183203.337,182203.377,182205.40000000596,182220.043,183220.003,
空白時間2 (0.5秒),canvas.Screen,9_13_2,2023-01-06T04:16:29.953Z,,,b,,,180,533.3120000000054,timeout,e.jpg,,,183704.20000000298,183703.317,183203.337,183205.40000000596,183220.003,183753.315,
刺激提示,canvas.Screen,9_13_3,2023-01-06T04:16:31.539Z,,,b,false,b,180,1530.6849999999977,response,e.jpg,d,keypress(j),185290.5,185284,183703.317,183704.40000000596,183753.315,185353.251,
フィードバック(0.5秒),canvas.Screen,9_13_4,2023-01-06T04:16:32.089Z,,,b,,,180,500.24300000001676,timeout,e.jpg,,,185840.40000000596,185836.828,185303.253,185307.90000000596,185353.251,185853.494,
トライアル,flow.Sequence,9_13,2023-01-06T04:16:32.089Z,,,b,,,180,4116.765000000014,completion,e.jpg,,,185840.90000000596,185836.828,181670.065,181673.20000000298,181720.063,185853.494,
空白時間1 (0.5秒),canvas.Screen,9_14_0,2023-01-06T04:16:32.587Z,,,b,,,270,533.3120000000054,timeout,e.jpg,,,186338.70000000298,186336.808,185836.828,185841.10000000894,185853.494,186386.806,
注視(1秒),canvas.Screen,9_14_1,2023-01-06T04:16:33.622Z,,,b,,,270,999.9599999999919,timeout,e.jpg,,,187373.20000000298,187370.1,186336.808,186338.79999999702,186386.806,187386.766,
空白時間2 (0.5秒),canvas.Screen,9_14_2,2023-01-06T04:16:34.122Z,,,b,,,270,499.9800000000105,timeout,e.jpg,,,187873.10000000894,187870.08,187370.1,187373.5,187386.766,187886.746,
刺激提示,canvas.Screen,9_14_3,2023-01-06T04:16:35.350Z,,,b,true,b,270,1209.2539999999863,response,e.jpg,b,keypress(f),189101.60000000894,189096,187870.08,187873.40000000596,187886.746,189186.694,
フィードバック(0.5秒),canvas.Screen,9_14_4,2023-01-06T04:16:35.920Z,,,b,,,270,533.3120000000054,timeout,e.jpg,,,189671.5,189670.008,189120.03,189129.70000000298,189186.694,189720.006,
トライアル,flow.Sequence,9_14,2023-01-06T04:16:35.920Z,,,b,,,270,3816.5139999999956,completion,e.jpg,,,189671.90000000596,189670.008,185836.828,185841,185853.494,189720.006,
空白時間1 (0.5秒),canvas.Screen,9_15_0,2023-01-06T04:16:36.455Z,,,d,,,0,499.9800000000105,timeout,eR.jpg,,,190206,190203.32,189670.008,189672.10000000894,189720.006,190219.986,
注視(1秒),canvas.Screen,9_15_1,2023-01-06T04:16:37.454Z,,,d,,,0,1049.9579999999842,timeout,eR.jpg,,,191205.29999999702,191203.28,190203.32,190206.29999999702,190219.986,191269.944,
空白時間2 (0.5秒),canvas.Screen,9_15_2,2023-01-06T04:16:38.004Z,,,d,,,0,499.9800000000105,timeout,eR.jpg,,,191755.10000000894,191753.258,191203.28,191205.5,191269.944,191769.924,
刺激提示,canvas.Screen,9_15_3,2023-01-06T04:16:38.697Z,,,d,true,d,0,670.8759999970207,response,eR.jpg,d,keypress(j),192448,192440.79999999702,191753.258,191755.29999999702,191769.924,192503.228,
フィードバック(0.5秒),canvas.Screen,9_15_4,2023-01-06T04:16:39.237Z,,,d,,,0,499.9800000000105,timeout,eR.jpg,,,192988.60000000894,192986.542,192469.896,192475.60000000894,192503.228,193003.208,
トライアル,flow.Sequence,9_15,2023-01-06T04:16:39.238Z,,,d,,,0,3266.535999999993,completion,eR.jpg,,,192989,192986.542,189670.008,189672,189720.006,193003.208,
タスクのセット,flow.Loop,9,2023-01-06T04:16:39.238Z,,,,,,,56499.061999999976,completion,,,,192989.29999999702,192986.542,136454.148,136455.79999999702,136487.48,193003.208,
空白時間1 (0.5秒),canvas.Screen,10_0_0,2023-01-06T04:16:39.737Z,,,d,,,270,499.9799999999814,timeout,eR.jpg,,,193488.70000000298,193486.522,192986.542,192989.79999999702,193003.208,193503.188,
注視(1秒),canvas.Screen,10_0_1,2023-01-06T04:16:40.737Z,,,d,,,270,999.9599999999919,timeout,eR.jpg,,,194488.60000000894,194486.482,193486.522,193488.90000000596,193503.188,194503.148,
空白時間2 (0.5秒),canvas.Screen,10_0_2,2023-01-06T04:16:41.237Z,,,d,,,270,499.9800000000105,timeout,eR.jpg,,,194988.5,194986.462,194486.482,194488.90000000596,194503.148,195003.128,
刺激提示,canvas.Screen,10_0_3,2023-01-06T04:16:42.396Z,,,d,true,d,270,1132.5720000029833,response,eR.jpg,d,keypress(j),196146.90000000596,196135.70000000298,194986.462,194988.79999999702,195003.128,196169.748,
フィードバック(0.5秒),canvas.Screen,10_0_4,2023-01-06T04:16:42.904Z,,,d,,,270,500.2630000000063,timeout,eR.jpg,,,196655,196653.345,196153.082,196165.5,196169.748,196670.011,
トライアル,flow.Sequence,10_0,2023-01-06T04:16:42.904Z,,,d,,,270,3650.136999999988,completion,eR.jpg,,,196655.29999999702,196653.345,192986.542,192989.70000000298,193003.208,196670.011,
空白時間1 (0.5秒),canvas.Screen,10_1_0,2023-01-06T04:16:43.404Z,,,b,,,0,499.9800000000105,timeout,e.jpg,,,197155.10000000894,197153.325,196653.345,196655.5,196670.011,197169.991,
注視(1秒),canvas.Screen,10_1_1,2023-01-06T04:16:44.403Z,,,b,,,0,999.9599999999919,timeout,e.jpg,,,198154.29999999702,198153.285,197153.325,197155.29999999702,197169.991,198169.951,
空白時間2 (0.5秒),canvas.Screen,10_1_2,2023-01-06T04:16:44.904Z,,,b,,,0,533.3120000000054,timeout,e.jpg,,,198655,198653.265,198153.285,198154.5,198169.951,198703.263,
刺激提示,canvas.Screen,10_1_3,2023-01-06T04:16:45.868Z,,,b,true,b,0,910.2369999999937,response,e.jpg,b,keypress(f),199619.70000000298,199613.5,198653.265,198655.10000000894,198703.263,199636.559,
フィードバック(0.5秒),canvas.Screen,10_1_4,2023-01-06T04:16:46.371Z,,,b,,,0,499.9799999999814,timeout,e.jpg,,,200121.79999999702,200119.873,199619.893,199635.5,199636.559,200136.539,
トライアル,flow.Sequence,10_1,2023-01-06T04:16:46.371Z,,,b,,,0,3449.8619999999937,completion,e.jpg,,,200122.10000000894,200119.873,196653.345,196655.40000000596,196670.011,200136.539,
空白時間1 (0.5秒),canvas.Screen,10_2_0,2023-01-06T04:16:46.872Z,,,b,,,45,549.9780000000028,timeout,e.jpg,,,200622.90000000596,200619.853,200119.873,200122.20000000298,200136.539,200686.517,
注視(1秒),canvas.Screen,10_2_1,2023-01-06T04:16:47.920Z,,,b,,,45,999.960000000021,timeout,e.jpg,,,201671.29999999702,201669.811,200619.853,200623,200686.517,201686.477,
空白時間2 (0.5秒),canvas.Screen,10_2_2,2023-01-06T04:16:48.420Z,,,b,,,45,499.9799999999814,timeout,e.jpg,,,202171.60000000894,202169.791,201669.811,201671.5,201686.477,202186.457,
刺激提示,canvas.Screen,10_2_3,2023-01-06T04:16:49.255Z,,,b,true,b,45,813.0430000000051,response,e.jpg,b,keypress(f),203006.20000000298,202999.5,202169.791,202172,202186.457,203019.757,
フィードバック(0.5秒),canvas.Screen,10_2_4,2023-01-06T04:16:49.754Z,,,b,,,45,499.9799999999814,timeout,e.jpg,,,203505.40000000596,203503.071,203003.091,203007.79999999702,203019.757,203519.737,
トライアル,flow.Sequence,10_2,2023-01-06T04:16:49.754Z,,,b,,,45,3366.5320000000065,completion,e.jpg,,,203505.70000000298,203503.071,200119.873,200122.20000000298,200136.539,203519.737,
空白時間1 (0.5秒),canvas.Screen,10_3_0,2023-01-06T04:16:50.254Z,,,d,,,315,499.9800000000105,timeout,eR.jpg,,,204005.29999999702,204003.051,203503.071,203505.79999999702,203519.737,204019.717,
注視(1秒),canvas.Screen,10_3_1,2023-01-06T04:16:51.253Z,,,d,,,315,999.9599999999919,timeout,eR.jpg,,,205004.70000000298,205003.011,204003.051,204005.5,204019.717,205019.677,
空白時間2 (0.5秒),canvas.Screen,10_3_2,2023-01-06T04:16:51.753Z,,,d,,,315,533.3120000000054,timeout,eR.jpg,,,205504.29999999702,205502.991,205003.011,205004.79999999702,205019.677,205552.989,
刺激提示,canvas.Screen,10_3_3,2023-01-06T04:16:52.561Z,,,d,true,d,315,753.5109999999986,response,eR.jpg,d,keypress(j),206312.20000000298,206306.5,205502.991,205504.40000000596,205552.989,206336.291,
フィードバック(0.5秒),canvas.Screen,10_3_4,2023-01-06T04:16:53.070Z,,,d,,,315,516.9120000000112,timeout,eR.jpg,,,206821.60000000894,206819.871,206319.625,206331.29999999702,206336.291,206853.203,
トライアル,flow.Sequence,10_3,2023-01-06T04:16:53.071Z,,,d,,,315,3300.13400000002,completion,eR.jpg,,,206822,206819.871,203503.071,203505.70000000298,203519.737,206853.203,
空白時間1 (0.5秒),canvas.Screen,10_4_0,2023-01-06T04:16:53.588Z,,,d,,,90,499.9799999999814,timeout,eR.jpg,,,207338.70000000298,207336.517,206819.871,206822.29999999702,206853.203,207353.183,
注視(1秒),canvas.Screen,10_4_1,2023-01-06T04:16:54.566Z,,,d,,,90,966.627999999997,timeout,eR.jpg,,,208317.40000000596,208303.145,207336.517,207339,207353.183,208319.811,
空白時間2 (0.5秒),canvas.Screen,10_4_2,2023-01-06T04:16:55.054Z,,,d,,,90,499.9800000000105,timeout,eR.jpg,,,208804.60000000894,208803.125,208303.145,208317.5,208319.811,208819.791,
刺激提示,canvas.Screen,10_4_3,2023-01-06T04:16:56.100Z,,,d,true,d,90,1025.5089999970223,response,eR.jpg,d,keypress(j),209850.79999999702,209845.29999999702,208803.125,208804.79999999702,208819.791,209869.749,
フィードバック(0.5秒),canvas.Screen,10_4_4,2023-01-06T04:16:56.604Z,,,d,,,90,499.9799999999814,timeout,eR.jpg,,,210355,210353.063,209853.083,209868.40000000596,209869.749,210369.729,
トライアル,flow.Sequence,10_4,2023-01-06T04:16:56.604Z,,,d,,,90,3499.859999999986,completion,eR.jpg,,,210355.20000000298,210353.063,206819.871,206822.20000000298,206853.203,210369.729,
空白時間1 (0.5秒),canvas.Screen,10_5_0,2023-01-06T04:16:57.104Z,,,d,,,135,499.9800000000105,timeout,eR.jpg,,,210855.10000000894,210853.043,210353.063,210355.29999999702,210369.729,210869.709,
注視(1秒),canvas.Screen,10_5_1,2023-01-06T04:16:58.104Z,,,d,,,135,999.9599999999919,timeout,eR.jpg,,,211855.10000000894,211853.003,210853.043,210855.29999999702,210869.709,211869.669,
空白時間2 (0.5秒),canvas.Screen,10_5_2,2023-01-06T04:16:58.604Z,,,d,,,135,499.9800000000105,timeout,eR.jpg,,,212354.90000000596,212352.983,211853.003,211855.29999999702,211869.669,212369.649,
刺激提示,canvas.Screen,10_5_3,2023-01-06T04:17:00.265Z,,,d,true,d,135,1640.7510000059556,response,eR.jpg,d,keypress(j),214015.60000000894,214010.40000000596,212352.983,212355.10000000894,212369.649,214036.249,
フィードバック(0.5秒),canvas.Screen,10_5_4,2023-01-06T04:17:00.771Z,,,d,,,135,549.9780000000028,timeout,eR.jpg,,,214522,214519.563,214019.583,214031.29999999702,214036.249,214586.227,
トライアル,flow.Sequence,10_5,2023-01-06T04:17:00.771Z,,,d,,,135,4149.834000000003,completion,eR.jpg,,,214522.29999999702,214519.563,210353.063,210355.29999999702,210369.729,214586.227,
空白時間1 (0.5秒),canvas.Screen,10_6_0,2023-01-06T04:17:01.323Z,,,d,,,180,499.9799999999814,timeout,eR.jpg,,,215073.5,215069.541,214519.563,214522.40000000596,214586.227,215086.207,
注視(1秒),canvas.Screen,10_6_1,2023-01-06T04:17:02.321Z,,,d,,,180,1033.2920000000158,timeout,eR.jpg,,,216071.70000000298,216069.501,215069.541,215073.90000000596,215086.207,216119.499,
空白時間2 (0.5秒),canvas.Screen,10_6_2,2023-01-06T04:17:02.853Z,,,d,,,180,499.9799999999814,timeout,eR.jpg,,,216604.29999999702,216602.813,216069.501,216072,216119.499,216619.479,
刺激提示,canvas.Screen,10_6_3,2023-01-06T04:17:04.156Z,,,d,true,d,180,1282.521000000008,response,eR.jpg,d,keypress(j),217907.40000000596,217902,216602.813,216604.60000000894,216619.479,217969.694,
フィードバック(0.5秒),canvas.Screen,10_6_4,2023-01-06T04:17:04.704Z,,,d,,,180,499.9800000000105,timeout,eR.jpg,,,218454.70000000298,218453.008,217919.696,217935.20000000298,217969.694,218469.674,
トライアル,flow.Sequence,10_6,2023-01-06T04:17:04.704Z,,,d,,,180,3866.780999999988,completion,eR.jpg,,,218454.90000000596,218453.008,214519.563,214522.40000000596,214586.227,218469.674,
空白時間1 (0.5秒),canvas.Screen,10_7_0,2023-01-06T04:17:05.203Z,,,b,,,270,533.3120000000054,timeout,e.jpg,,,218954.29999999702,218952.988,218453.008,218455.10000000894,218469.674,219002.986,
注視(1秒),canvas.Screen,10_7_1,2023-01-06T04:17:06.238Z,,,b,,,270,999.9599999999919,timeout,e.jpg,,,219988.90000000596,219986.28,218952.988,218954.40000000596,219002.986,220002.946,
空白時間2 (0.5秒),canvas.Screen,10_7_2,2023-01-06T04:17:06.738Z,,,b,,,270,549.9780000000028,timeout,e.jpg,,,220488.60000000894,220486.26,219986.28,219989.20000000298,220002.946,220552.924,
刺激提示,canvas.Screen,10_7_3,2023-01-06T04:17:07.537Z,,,b,true,b,270,729.0760000000009,response,e.jpg,b,keypress(f),221288.40000000596,221282,220486.26,220488.79999999702,220552.924,221302.894,
フィードバック(0.5秒),canvas.Screen,10_7_4,2023-01-06T04:17:08.037Z,,,b,,,270,566.6440000000002,timeout,e.jpg,,,221787.90000000596,221786.208,221286.228,221290.10000000894,221302.894,221869.538,
トライアル,flow.Sequence,10_7,2023-01-06T04:17:08.037Z,,,b,,,270,3316.534000000014,completion,e.jpg,,,221788.20000000298,221786.208,218453.008,218455,218469.674,221869.538,
空白時間1 (0.5秒),canvas.Screen,10_8_0,2023-01-06T04:17:08.604Z,,,d,,,45,499.9800000000105,timeout,eR.jpg,,,222354.60000000894,222352.852,221786.208,221788.29999999702,221869.538,222369.518,
注視(1秒),canvas.Screen,10_8_1,2023-01-06T04:17:09.605Z,,,d,,,45,999.9599999999919,timeout,eR.jpg,,,223355.5,223352.812,222352.852,222354.79999999702,222369.518,223369.478,
空白時間2 (0.5秒),canvas.Screen,10_8_2,2023-01-06T04:17:10.104Z,,,d,,,45,549.9780000000028,timeout,eR.jpg,,,223854.5,223852.792,223352.812,223355.60000000894,223369.478,223919.456,
刺激提示,canvas.Screen,10_8_3,2023-01-06T04:17:11.335Z,,,d,true,d,45,1160.3439999970142,response,eR.jpg,d,keypress(j),225085.70000000298,225079.79999999702,223852.792,223854.60000000894,223919.456,225102.742,
フィードバック(0.5秒),canvas.Screen,10_8_4,2023-01-06T04:17:11.838Z,,,d,,,45,549.9780000000028,timeout,eR.jpg,,,225588.70000000298,225586.056,225086.076,225103.79999999702,225102.742,225652.72,
トライアル,flow.Sequence,10_8,2023-01-06T04:17:11.838Z,,,d,,,45,3716.518000000011,completion,eR.jpg,,,225589.20000000298,225586.056,221786.208,221788.20000000298,221869.538,225652.72,
空白時間1 (0.5秒),canvas.Screen,10_9_0,2023-01-06T04:17:12.389Z,,,b,,,315,499.9800000000105,timeout,e.jpg,,,226139.5,226136.034,225586.056,225589.40000000596,225652.72,226152.7,
注視(1秒),canvas.Screen,10_9_1,2023-01-06T04:17:13.387Z,,,b,,,315,999.9599999999919,timeout,e.jpg,,,227137.40000000596,227135.994,226136.034,226139.79999999702,226152.7,227152.66,
空白時間2 (0.5秒),canvas.Screen,10_9_2,2023-01-06T04:17:13.888Z,,,b,,,315,550.252999999997,timeout,e.jpg,,,227639.20000000298,227636.249,227135.994,227137.79999999702,227152.66,227702.913,
刺激提示,canvas.Screen,10_9_3,2023-01-06T04:17:14.511Z,,,b,true,b,315,552.7870000029798,response,e.jpg,b,keypress(f),228261.5,228255.70000000298,227636.249,227639.60000000894,227702.913,228286.223,
フィードバック(0.5秒),canvas.Screen,10_9_4,2023-01-06T04:17:15.067Z,,,b,,,315,533.3120000000054,timeout,e.jpg,,,228817.90000000596,228802.869,228269.557,228278.20000000298,228286.223,228819.535,
トライアル,flow.Sequence,10_9,2023-01-06T04:17:15.067Z,,,b,,,315,3150.149000000005,completion,e.jpg,,,228818.10000000894,228802.869,225586.056,225589.40000000596,225652.72,228819.535,
空白時間1 (0.5秒),canvas.Screen,10_10_0,2023-01-06T04:17:15.554Z,,,d,,,0,499.9800000000105,timeout,eR.jpg,,,229304.40000000596,229302.849,228802.869,228819.90000000596,228819.535,229319.515,
注視(1秒),canvas.Screen,10_10_1,2023-01-06T04:17:16.553Z,,,d,,,0,1033.2919999999867,timeout,eR.jpg,,,230304,230302.809,229302.849,229304.60000000894,229319.515,230352.807,
空白時間2 (0.5秒),canvas.Screen,10_10_2,2023-01-06T04:17:17.088Z,,,d,,,0,499.9800000000105,timeout,eR.jpg,,,230838.29999999702,230836.121,230302.809,230304.10000000894,230352.807,230852.787,
刺激提示,canvas.Screen,10_10_3,2023-01-06T04:17:17.794Z,,,d,true,d,0,683.1130000059493,response,eR.jpg,d,keypress(j),231544.70000000298,231535.90000000596,230836.121,230838.60000000894,230852.787,231602.757,
フィードバック(0.5秒),canvas.Screen,10_10_4,2023-01-06T04:17:18.338Z,,,d,,,0,499.9799999999814,timeout,eR.jpg,,,232088.60000000894,232086.071,231552.759,231547.10000000894,231602.757,232102.737,
トライアル,flow.Sequence,10_10,2023-01-06T04:17:18.338Z,,,d,,,0,3266.535999999993,completion,eR.jpg,,,232089.10000000894,232086.071,228802.869,228819.90000000596,228819.535,232102.737,
空白時間1 (0.5秒),canvas.Screen,10_11_0,2023-01-06T04:17:18.838Z,,,d,,,225,549.9780000000028,timeout,eR.jpg,,,232588.40000000596,232586.051,232086.071,232089.29999999702,232102.737,232652.715,
注視(1秒),canvas.Screen,10_11_1,2023-01-06T04:17:19.888Z,,,d,,,225,999.9599999999919,timeout,eR.jpg,,,233639.20000000298,233636.009,232586.051,232588.60000000894,232652.715,233652.675,
空白時間2 (0.5秒),canvas.Screen,10_11_2,2023-01-06T04:17:20.388Z,,,d,,,225,549.9780000000028,timeout,eR.jpg,,,234138.90000000596,234135.989,233636.009,233640.10000000894,233652.675,234202.653,
刺激提示,canvas.Screen,10_11_3,2023-01-06T04:17:21.444Z,,,d,true,d,225,983.9470000089495,response,eR.jpg,d,keypress(j),235195.10000000894,235186.60000000894,234135.989,234139.5,234202.653,235219.279,
フィードバック(0.5秒),canvas.Screen,10_11_4,2023-01-06T04:17:21.959Z,,,d,,,225,499.9799999999814,timeout,eR.jpg,,,235710,235702.593,235202.613,235222.70000000298,235219.279,235719.259,
トライアル,flow.Sequence,10_11,2023-01-06T04:17:21.959Z,,,d,,,225,3599.8559999999998,completion,eR.jpg,,,235710.20000000298,235702.593,232086.071,232089.20000000298,232102.737,235719.259,
空白時間1 (0.5秒),canvas.Screen,10_12_0,2023-01-06T04:17:22.454Z,,,b,,,180,499.9800000000105,timeout,e.jpg,,,236204.79999999702,236202.573,235702.593,235710.5,235719.259,236219.239,
注視(1秒),canvas.Screen,10_12_1,2023-01-06T04:17:23.453Z,,,b,,,180,999.9599999999919,timeout,e.jpg,,,237204.10000000894,237202.533,236202.573,236204.90000000596,236219.239,237219.199,
空白時間2 (0.5秒),canvas.Screen,10_12_2,2023-01-06T04:17:23.954Z,,,b,,,180,533.5760000000009,timeout,e.jpg,,,237704.40000000596,237702.777,237202.533,237204.29999999702,237219.199,237752.775,
刺激提示,canvas.Screen,10_12_3,2023-01-06T04:17:25.533Z,,,b,false,b,180,1522.6250000059663,response,e.jpg,d,keypress(j),239283.29999999702,239275.40000000596,237702.777,237704.5,237752.775,239302.713,
フィードバック(0.5秒),canvas.Screen,10_12_4,2023-01-06T04:17:26.090Z,,,b,,,180,549.9780000000028,timeout,e.jpg,,,239840.5,239836.025,239286.047,239301.60000000894,239302.713,239852.691,
トライアル,flow.Sequence,10_12,2023-01-06T04:17:26.091Z,,,b,,,180,4116.766000000003,completion,e.jpg,,,239841.29999999702,239836.025,235702.593,235710.29999999702,235719.259,239852.691,
空白時間1 (0.5秒),canvas.Screen,10_13_0,2023-01-06T04:17:26.589Z,,,b,,,90,499.9800000000105,timeout,e.jpg,,,240339.40000000596,240336.005,239836.025,239841.5,239852.691,240352.671,
注視(1秒),canvas.Screen,10_13_1,2023-01-06T04:17:27.588Z,,,b,,,90,1049.9579999999842,timeout,e.jpg,,,241338.29999999702,241335.965,240336.005,240339.79999999702,240352.671,241402.629,
空白時間2 (0.5秒),canvas.Screen,10_13_2,2023-01-06T04:17:28.137Z,,,b,,,90,499.9800000000105,timeout,e.jpg,,,241887.79999999702,241885.943,241335.965,241338.5,241402.629,241902.609,
刺激提示,canvas.Screen,10_13_3,2023-01-06T04:17:29.716Z,,,b,true,b,90,1558.491000008944,response,e.jpg,b,keypress(f),243466.70000000298,243461.10000000894,241885.943,241888.10000000894,241902.609,243535.877,
フィードバック(0.5秒),canvas.Screen,10_13_4,2023-01-06T04:17:30.271Z,,,b,,,90,549.9780000000028,timeout,e.jpg,,,244021.29999999702,244019.191,243469.213,243484.60000000894,243535.877,244085.855,
トライアル,flow.Sequence,10_13,2023-01-06T04:17:30.271Z,,,b,,,90,4166.5,completion,e.jpg,,,244021.5,244019.191,239836.025,239841.5,239852.691,244085.855,
空白時間1 (0.5秒),canvas.Screen,10_14_0,2023-01-06T04:17:30.821Z,,,b,,,225,499.9799999999814,timeout,e.jpg,,,244571.5,244569.169,244019.191,244021.60000000894,244085.855,244585.835,
注視(1秒),canvas.Screen,10_14_1,2023-01-06T04:17:31.822Z,,,b,,,225,999.960000000021,timeout,e.jpg,,,245573.10000000894,245569.129,244569.169,244571.79999999702,244585.835,245585.795,
空白時間2 (0.5秒),canvas.Screen,10_14_2,2023-01-06T04:17:32.321Z,,,b,,,225,499.9799999999814,timeout,e.jpg,,,246071.5,246069.109,245569.129,245573.29999999702,245585.795,246085.775,
刺激提示,canvas.Screen,10_14_3,2023-01-06T04:17:33.262Z,,,b,true,b,225,921.425000002986,response,e.jpg,b,keypress(f),247012.5,247007.20000000298,246069.109,246071.90000000596,246085.775,247035.737,
フィードバック(0.5秒),canvas.Screen,10_14_4,2023-01-06T04:17:33.756Z,,,b,,,225,483.31400000001304,timeout,e.jpg,,,247506.70000000298,247502.385,247019.071,247028.90000000596,247035.737,247519.051,
トライアル,flow.Sequence,10_14,2023-01-06T04:17:33.756Z,,,b,,,225,3416.529999999999,completion,e.jpg,,,247506.90000000596,247502.385,244019.191,244021.60000000894,244085.855,247519.051,
空白時間1 (0.5秒),canvas.Screen,10_15_0,2023-01-06T04:17:34.254Z,,,b,,,135,500.2489999999816,timeout,e.jpg,,,248004.70000000298,248002.634,247502.385,247507.10000000894,247519.051,248019.3,
注視(1秒),canvas.Screen,10_15_1,2023-01-06T04:17:35.254Z,,,b,,,135,1033.2920000000158,timeout,e.jpg,,,249004.79999999702,249002.594,248002.634,248004.79999999702,248019.3,249052.592,
空白時間2 (0.5秒),canvas.Screen,10_15_2,2023-01-06T04:17:35.787Z,,,b,,,135,499.9799999999814,timeout,e.jpg,,,249537.29999999702,249535.906,249002.594,249004.90000000596,249052.592,249552.572,
刺激提示,canvas.Screen,10_15_3,2023-01-06T04:17:37.064Z,,,b,false,b,135,1256.5280000089551,response,e.jpg,d,keypress(j),250814.79999999702,250809.10000000894,249535.906,249537.70000000298,249552.572,250835.854,
フィードバック(0.5秒),canvas.Screen,10_15_4,2023-01-06T04:17:37.570Z,,,b,,,135,499.9800000000105,timeout,e.jpg,,,251320.5,251319.168,250819.188,250831,250835.854,251335.834,
トライアル,flow.Sequence,10_15,2023-01-06T04:17:37.570Z,,,b,,,135,3800.1169999999984,completion,e.jpg,,,251320.79999999702,251319.168,247502.385,247507,247519.051,251335.834,
タスクのセット,flow.Loop,10,2023-01-06T04:17:37.570Z,,,,,,,58315.95999999999,completion,,,,251320.90000000596,251319.168,192986.542,192989.5,193003.208,251335.834,
空白時間1 (0.5秒),canvas.Screen,11_0_0,2023-01-06T04:17:38.071Z,,,b,,,90,499.9800000000105,timeout,e.jpg,,,251821.40000000596,251819.148,251319.168,251321.20000000298,251335.834,251835.814,
注視(1秒),canvas.Screen,11_0_1,2023-01-06T04:17:39.071Z,,,b,,,90,1016.6259999999893,timeout,e.jpg,,,252821.10000000894,252819.108,251819.148,251821.60000000894,251835.814,252852.44,
空白時間2 (0.5秒),canvas.Screen,11_0_2,2023-01-06T04:17:39.589Z,,,b,,,90,499.9800000000105,timeout,e.jpg,,,253339.40000000596,253335.754,252819.108,252821.40000000596,252852.44,253352.42,
刺激提示,canvas.Screen,11_0_3,2023-01-06T04:17:40.980Z,,,b,true,b,90,1371.5799999999872,response,e.jpg,b,keypress(f),254730.29999999702,254724,253335.754,253339.60000000894,253352.42,254802.362,
フィードバック(0.5秒),canvas.Screen,11_0_4,2023-01-06T04:17:41.536Z,,,b,,,90,499.9800000000105,timeout,e.jpg,,,255286.70000000298,255285.676,254735.698,254747.79999999702,254802.362,255302.342,
トライアル,flow.Sequence,11_0,2023-01-06T04:17:41.537Z,,,b,,,90,3949.842000000004,completion,e.jpg,,,255286.90000000596,255285.676,251319.168,251321.10000000894,251335.834,255302.342,
空白時間1 (0.5秒),canvas.Screen,11_1_0,2023-01-06T04:17:42.037Z,,,d,,,90,549.9780000000028,timeout,eR.jpg,,,255787.79999999702,255785.656,255285.676,255287.20000000298,255302.342,255852.32,
注視(1秒),canvas.Screen,11_1_1,2023-01-06T04:17:43.087Z,,,d,,,90,1049.9579999999842,timeout,eR.jpg,,,256837.40000000596,256835.614,255785.656,255788.10000000894,255852.32,256902.278,
空白時間2 (0.5秒),canvas.Screen,11_1_2,2023-01-06T04:17:43.638Z,,,d,,,90,499.9800000000105,timeout,eR.jpg,,,257388.20000000298,257385.592,256835.614,256837.70000000298,256902.278,257402.258,
刺激提示,canvas.Screen,11_1_3,2023-01-06T04:17:44.628Z,,,d,true,d,90,969.5419999970181,response,eR.jpg,d,keypress(j),258378.60000000894,258371.79999999702,257385.592,257388.60000000894,257402.258,258468.882,
フィードバック(0.5秒),canvas.Screen,11_1_4,2023-01-06T04:17:45.204Z,,,d,,,90,500.26699999999255,timeout,eR.jpg,,,258954.40000000596,258952.483,258402.218,258408.79999999702,258468.882,258969.149,
トライアル,flow.Sequence,11_1,2023-01-06T04:17:45.204Z,,,d,,,90,3650.1410000000033,completion,eR.jpg,,,258954.60000000894,258952.483,255285.676,255287.20000000298,255302.342,258969.149,
空白時間1 (0.5秒),canvas.Screen,11_2_0,2023-01-06T04:17:45.705Z,,,d,,,45,533.3120000000054,timeout,eR.jpg,,,259454.90000000596,259452.463,258952.483,258954.70000000298,258969.149,259502.461,
注視(1秒),canvas.Screen,11_2_1,2023-01-06T04:17:46.737Z,,,d,,,45,999.9599999999919,timeout,eR.jpg,,,260487.10000000894,260485.755,259452.463,259455.10000000894,259502.461,260502.421,
空白時間2 (0.5秒),canvas.Screen,11_2_2,2023-01-06T04:17:47.237Z,,,d,,,45,499.9800000000105,timeout,eR.jpg,,,260987.10000000894,260985.735,260485.755,260487.40000000596,260502.421,261002.401,
刺激提示,canvas.Screen,11_2_3,2023-01-06T04:17:49.000Z,,,d,true,d,45,1742.8989999970072,response,eR.jpg,d,keypress(j),262750.40000000596,262745.299999997,260985.735,260987.29999999702,261002.401,262768.997,
フィードバック(0.5秒),canvas.Screen,11_2_4,2023-01-06T04:17:49.504Z,,,d,,,45,549.9780000000028,timeout,eR.jpg,,,263254.299999997,263252.311,262752.331,262767.799999997,262768.997,263318.975,
トライアル,flow.Sequence,11_2,2023-01-06T04:17:49.504Z,,,d,,,45,4283.161999999982,completion,eR.jpg,,,263254.60000000894,263252.311,258952.483,258954.70000000298,258969.149,263318.975,
空白時間1 (0.5秒),canvas.Screen,11_3_0,2023-01-06T04:17:50.054Z,,,b,,,135,499.9800000000396,timeout,e.jpg,,,263804.40000000596,263802.289,263252.311,263254.700000003,263318.975,263818.955,
注視(1秒),canvas.Screen,11_3_1,2023-01-06T04:17:51.053Z,,,b,,,135,999.9599999999627,timeout,e.jpg,,,264803.60000000894,264802.249,263802.289,263805,263818.955,264818.915,
空白時間2 (0.5秒),canvas.Screen,11_3_2,2023-01-06T04:17:51.553Z,,,b,,,135,499.9800000000396,timeout,e.jpg,,,265303.5,265302.229,264802.249,264803.799999997,264818.915,265318.895,
刺激提示,canvas.Screen,11_3_3,2023-01-06T04:17:52.589Z,,,b,true,b,135,1013.1049999999814,response,e.jpg,b,keypress(f),266339,266332,265302.229,265303.700000003,265318.895,266368.853,
フィードバック(0.5秒),canvas.Screen,11_3_4,2023-01-06T04:17:53.104Z,,,b,,,135,533.3119999999763,timeout,e.jpg,,,266854.5,266852.167,266352.187,266357.200000003,266368.853,266902.165,
トライアル,flow.Sequence,11_3,2023-01-06T04:17:53.105Z,,,b,,,135,3533.192000000039,completion,e.jpg,,,266854.799999997,266852.167,263252.311,263254.60000000894,263318.975,266902.165,
空白時間1 (0.5秒),canvas.Screen,11_4_0,2023-01-06T04:17:53.637Z,,,b,,,315,499.9800000000396,timeout,e.jpg,,,267387.10000000894,267385.479,266852.167,266854.90000000596,266902.165,267402.145,
注視(1秒),canvas.Screen,11_4_1,2023-01-06T04:17:54.637Z,,,b,,,315,1049.9579999999842,timeout,e.jpg,,,268387.10000000894,268385.439,267385.479,267387.40000000596,267402.145,268452.103,
空白時間2 (0.5秒),canvas.Screen,11_4_2,2023-01-06T04:17:55.188Z,,,b,,,315,499.9799999999814,timeout,e.jpg,,,268938.299999997,268935.417,268385.439,268387.299999997,268452.103,268952.083,
刺激提示,canvas.Screen,11_4_3,2023-01-06T04:17:55.836Z,,,b,true,b,315,626.8170000059763,response,e.jpg,b,keypress(f),269586.40000000596,269578.90000000596,268935.417,268939,268952.083,269652.329,
フィードバック(0.5秒),canvas.Screen,11_4_4,2023-01-06T04:17:56.389Z,,,b,,,315,549.9779999999446,timeout,e.jpg,,,270139.200000003,270135.643,269585.665,269588,269652.329,270202.307,
トライアル,flow.Sequence,11_4,2023-01-06T04:17:56.389Z,,,b,,,315,3233.478000000003,completion,e.jpg,,,270139.5,270135.643,266852.167,266854.90000000596,266902.165,270202.307,
空白時間1 (0.5秒),canvas.Screen,11_5_0,2023-01-06T04:17:56.938Z,,,b,,,225,499.9800000000396,timeout,e.jpg,,,270687.700000003,270685.621,270135.643,270139.700000003,270202.307,270702.287,
注視(1秒),canvas.Screen,11_5_1,2023-01-06T04:17:57.938Z,,,b,,,225,1049.9579999999842,timeout,e.jpg,,,271687.90000000596,271685.581,270685.621,270688,270702.287,271752.245,
空白時間2 (0.5秒),canvas.Screen,11_5_2,2023-01-06T04:17:58.488Z,,,b,,,225,499.9799999999814,timeout,e.jpg,,,272238.10000000894,272235.559,271685.581,271688.299999997,271752.245,272252.225,
刺激提示,canvas.Screen,11_5_3,2023-01-06T04:17:59.050Z,,,b,true,b,225,540.574999997043,response,e.jpg,b,keypress(f),272799.799999997,272792.799999997,272235.559,272238.60000000894,272252.225,272885.533,
フィードバック(0.5秒),canvas.Screen,11_5_4,2023-01-06T04:17:59.621Z,,,b,,,225,499.9799999999814,timeout,e.jpg,,,273371.200000003,273368.847,272818.869,272847.40000000596,272885.533,273385.513,
トライアル,flow.Sequence,11_5,2023-01-06T04:17:59.622Z,,,b,,,225,3166.5400000000373,completion,e.jpg,,,273371.799999997,273368.847,270135.643,270139.60000000894,270202.307,273385.513,
空白時間1 (0.5秒),canvas.Screen,11_6_0,2023-01-06T04:18:00.120Z,,,d,,,135,499.9800000000396,timeout,eR.jpg,,,273870,273868.827,273368.847,273372,273385.513,273885.493,
注視(1秒),canvas.Screen,11_6_1,2023-01-06T04:18:01.122Z,,,d,,,135,999.9599999999627,timeout,eR.jpg,,,274871.799999997,274868.787,273868.827,273870.200000003,273885.493,274885.453,
空白時間2 (0.5秒),canvas.Screen,11_6_2,2023-01-06T04:18:01.621Z,,,d,,,135,533.3120000000345,timeout,eR.jpg,,,275371.200000003,275368.767,274868.787,274872.10000000894,274885.453,275418.765,
刺激提示,canvas.Screen,11_6_3,2023-01-06T04:18:02.702Z,,,d,true,d,135,1027.9350000029663,response,eR.jpg,d,keypress(j),276452.299999997,276446.700000003,275368.767,275371.299999997,275418.765,276468.723,
フィードバック(0.5秒),canvas.Screen,11_6_4,2023-01-06T04:18:03.204Z,,,d,,,135,549.9780000000028,timeout,eR.jpg,,,276953.799999997,276952.037,276452.057,276470.700000003,276468.723,277018.701,
トライアル,flow.Sequence,11_6,2023-01-06T04:18:03.204Z,,,d,,,135,3566.524000000034,completion,eR.jpg,,,276954.10000000894,276952.037,273368.847,273371.90000000596,273385.513,277018.701,
空白時間1 (0.5秒),canvas.Screen,11_7_0,2023-01-06T04:18:03.754Z,,,b,,,45,499.9799999999814,timeout,e.jpg,,,277504.299999997,277502.015,276952.037,276954.200000003,277018.701,277518.681,
注視(1秒),canvas.Screen,11_7_1,2023-01-06T04:18:04.754Z,,,b,,,45,999.960000000021,timeout,e.jpg,,,278504,278501.975,277502.015,277504.5,277518.681,278518.641,
空白時間2 (0.5秒),canvas.Screen,11_7_2,2023-01-06T04:18:05.283Z,,,b,,,45,516.6460000000079,timeout,e.jpg,,,279032.60000000894,279018.621,278501.975,278504.10000000894,278518.641,279035.287,
刺激提示,canvas.Screen,11_7_3,2023-01-06T04:18:05.951Z,,,b,true,b,45,658.2129999999888,response,e.jpg,b,keypress(f),279700.799999997,279693.5,279018.621,279032.799999997,279035.287,279718.857,
フィードバック(0.5秒),canvas.Screen,11_7_4,2023-01-06T04:18:06.455Z,,,b,,,45,549.9780000000028,timeout,e.jpg,,,280204.700000003,280202.171,279702.191,279702.40000000596,279718.857,280268.835,
トライアル,flow.Sequence,11_7,2023-01-06T04:18:06.455Z,,,b,,,45,3183.469999999972,completion,e.jpg,,,280205,280202.171,276952.037,276954.200000003,277018.701,280268.835,
空白時間1 (0.5秒),canvas.Screen,11_8_0,2023-01-06T04:18:07.004Z,,,b,,,0,499.9799999999814,timeout,e.jpg,,,280754,280752.149,280202.171,280205.10000000894,280268.835,280768.815,
注視(1秒),canvas.Screen,11_8_1,2023-01-06T04:18:08.056Z,,,b,,,0,1049.9579999999842,timeout,e.jpg,,,281805.799999997,281802.107,280752.149,280754.200000003,280768.815,281818.773,
空白時間2 (0.5秒),canvas.Screen,11_8_2,2023-01-06T04:18:08.554Z,,,b,,,0,499.9800000000396,timeout,e.jpg,,,282304,282302.087,281802.107,281806,281818.773,282318.753,
刺激提示,canvas.Screen,11_8_3,2023-01-06T04:18:09.128Z,,,b,true,b,0,553.6470000059344,response,e.jpg,b,keypress(f),282878.40000000596,282872.40000000596,282302.087,282304.10000000894,282318.753,282935.395,
フィードバック(0.5秒),canvas.Screen,11_8_4,2023-01-06T04:18:09.670Z,,,b,,,0,499.9799999999814,timeout,e.jpg,,,283420.5,283418.709,282885.397,282902,282935.395,283435.375,
トライアル,flow.Sequence,11_8,2023-01-06T04:18:09.671Z,,,b,,,0,3149.8739999999525,completion,e.jpg,,,283420.90000000596,283418.709,280202.171,280205.10000000894,280268.835,283435.375,
空白時間1 (0.5秒),canvas.Screen,11_9_0,2023-01-06T04:18:10.170Z,,,d,,,270,499.9799999999814,timeout,eR.jpg,,,283920.299999997,283918.689,283418.709,283421,283435.375,283935.355,
注視(1秒),canvas.Screen,11_9_1,2023-01-06T04:18:11.171Z,,,d,,,270,1033.2920000000158,timeout,eR.jpg,,,284920.60000000894,284918.649,283918.689,283920.5,283935.355,284968.647,
空白時間2 (0.5秒),canvas.Screen,11_9_2,2023-01-06T04:18:11.703Z,,,d,,,270,549.9780000000028,timeout,eR.jpg,,,285453.10000000894,285451.961,284918.649,284921.40000000596,284968.647,285518.625,
刺激提示,canvas.Screen,11_9_3,2023-01-06T04:18:12.631Z,,,d,true,d,270,854.875,response,eR.jpg,d,keypress(j),286381.299999997,286373.5,285451.961,285453.299999997,285518.625,286401.923,
フィードバック(0.5秒),canvas.Screen,11_9_4,2023-01-06T04:18:13.169Z,,,d,,,270,516.6460000000079,timeout,eR.jpg,,,286918.5,286901.903,286385.257,286399,286401.923,286918.569,
トライアル,flow.Sequence,11_9,2023-01-06T04:18:13.169Z,,,d,,,270,3466.527999999991,completion,eR.jpg,,,286918.799999997,286901.903,283418.709,283421,283435.375,286918.569,
空白時間1 (0.5秒),canvas.Screen,11_10_0,2023-01-06T04:18:13.654Z,,,b,,,180,499.9799999999814,timeout,e.jpg,,,287404.10000000894,287401.883,286901.903,286918.799999997,286918.569,287418.549,
注視(1秒),canvas.Screen,11_10_1,2023-01-06T04:18:14.654Z,,,b,,,180,999.960000000021,timeout,e.jpg,,,288403.90000000596,288401.843,287401.883,287404.299999997,287418.549,288418.509,
空白時間2 (0.5秒),canvas.Screen,11_10_2,2023-01-06T04:18:15.154Z,,,b,,,180,533.3119999999763,timeout,e.jpg,,,288904.10000000894,288901.823,288401.843,288404.10000000894,288418.509,288951.821,
刺激提示,canvas.Screen,11_10_3,2023-01-06T04:18:16.234Z,,,b,false,b,180,1023.4789999970235,response,e.jpg,d,keypress(j),289983.5,289975.299999997,288901.823,288904.200000003,288951.821,290001.779,
フィードバック(0.5秒),canvas.Screen,11_10_4,2023-01-06T04:18:16.737Z,,,b,,,180,500.26699999999255,timeout,e.jpg,,,290486.700000003,290485.38,289985.113,290001.90000000596,290001.779,290502.046,
トライアル,flow.Sequence,11_10,2023-01-06T04:18:16.737Z,,,b,,,180,3566.810999999987,completion,e.jpg,,,290487.200000003,290485.38,286901.903,286918.799999997,286918.569,290502.046,
空白時間1 (0.5秒),canvas.Screen,11_11_0,2023-01-06T04:18:17.238Z,,,d,,,180,549.9780000000028,timeout,eR.jpg,,,290988.200000003,290985.36,290485.38,290487.40000000596,290502.046,291052.024,
注視(1秒),canvas.Screen,11_11_1,2023-01-06T04:18:18.288Z,,,d,,,180,999.960000000021,timeout,eR.jpg,,,292037.40000000596,292035.318,290985.36,290988.40000000596,291052.024,292051.984,
空白時間2 (0.5秒),canvas.Screen,11_11_2,2023-01-06T04:18:18.813Z,,,d,,,180,516.6460000000079,timeout,eR.jpg,,,292563,292551.964,292035.318,292037.700000003,292051.984,292568.63,
刺激提示,canvas.Screen,11_11_3,2023-01-06T04:18:20.093Z,,,d,true,d,180,1264.7700000059558,response,eR.jpg,d,keypress(j),293842.299999997,293833.40000000596,292551.964,292563.200000003,292568.63,293868.578,
フィードバック(0.5秒),canvas.Screen,11_11_4,2023-01-06T04:18:20.603Z,,,d,,,180,533.3120000000345,timeout,eR.jpg,,,294353.10000000894,294351.892,293851.912,293844.10000000894,293868.578,294401.89,
トライアル,flow.Sequence,11_11,2023-01-06T04:18:20.604Z,,,d,,,180,3849.8460000000196,completion,eR.jpg,,,294353.40000000596,294351.892,290485.38,290487.40000000596,290502.046,294401.89,
空白時間1 (0.5秒),canvas.Screen,11_12_0,2023-01-06T04:18:21.137Z,,,d,,,0,499.9799999999814,timeout,eR.jpg,,,294887.10000000894,294885.204,294351.892,294353.5,294401.89,294901.87,
注視(1秒),canvas.Screen,11_12_1,2023-01-06T04:18:22.204Z,,,d,,,0,1049.9579999999842,timeout,eR.jpg,,,295953.700000003,295885.164,294885.204,294887.40000000596,294901.87,295951.828,
空白時間2 (0.5秒),canvas.Screen,11_12_2,2023-01-06T04:18:22.688Z,,,d,,,0,549.9780000000028,timeout,eR.jpg,,,296437.799999997,296435.142,295885.164,295953.90000000596,295951.828,296501.806,
刺激提示,canvas.Screen,11_12_3,2023-01-06T04:18:23.625Z,,,d,true,d,0,866.3940000029979,response,eR.jpg,d,keypress(j),297374.5,297368.200000003,296435.142,296438.5,296501.806,297401.77,
フィードバック(0.5秒),canvas.Screen,11_12_4,2023-01-06T04:18:24.187Z,,,d,,,0,549.9780000000028,timeout,eR.jpg,,,297936.299999997,297918.416,297385.104,297392,297401.77,297951.748,
トライアル,flow.Sequence,11_12,2023-01-06T04:18:24.187Z,,,d,,,0,3516.5260000000126,completion,eR.jpg,,,297936.5,297918.416,294351.892,294353.5,294401.89,297951.748,
空白時間1 (0.5秒),canvas.Screen,11_13_0,2023-01-06T04:18:24.687Z,,,b,,,270,499.9799999999814,timeout,e.jpg,,,298437.200000003,298435.062,297918.416,297936.700000003,297951.748,298451.728,
注視(1秒),canvas.Screen,11_13_1,2023-01-06T04:18:25.731Z,,,b,,,270,1033.2920000000158,timeout,e.jpg,,,299481,299468.354,298435.062,298437.40000000596,298451.728,299485.02,
空白時間2 (0.5秒),canvas.Screen,11_13_2,2023-01-06T04:18:26.222Z,,,b,,,270,499.9799999999814,timeout,e.jpg,,,299971.5,299968.334,299468.354,299481.10000000894,299485.02,299985,
刺激提示,canvas.Screen,11_13_3,2023-01-06T04:18:26.935Z,,,b,true,b,270,692,response,e.jpg,b,keypress(f),300684.90000000596,300677,299968.334,299971.700000003,299985,300768.302,
フィードバック(0.5秒),canvas.Screen,11_13_4,2023-01-06T04:18:27.504Z,,,b,,,270,500.2619999999879,timeout,e.jpg,,,301253.90000000596,301251.898,300684.972,300740.700000003,300768.302,301268.564,
トライアル,flow.Sequence,11_13,2023-01-06T04:18:27.504Z,,,b,,,270,3300.149999999965,completion,e.jpg,,,301254.10000000894,301251.898,297918.416,297936.60000000894,297951.748,301268.564,
空白時間1 (0.5秒),canvas.Screen,11_14_0,2023-01-06T04:18:28.003Z,,,d,,,315,533.3119999999763,timeout,eR.jpg,,,301753.200000003,301751.878,301251.898,301254.299999997,301268.564,301801.876,
注視(1秒),canvas.Screen,11_14_1,2023-01-06T04:18:29.037Z,,,d,,,315,999.960000000021,timeout,eR.jpg,,,302787.10000000894,302785.17,301751.878,301753.299999997,301801.876,302801.836,
空白時間2 (0.5秒),canvas.Screen,11_14_2,2023-01-06T04:18:29.539Z,,,d,,,315,499.9799999999814,timeout,eR.jpg,,,303288.299999997,303285.15,302785.17,302787.299999997,302801.836,303301.816,
刺激提示,canvas.Screen,11_14_3,2023-01-06T04:18:30.347Z,,,d,true,d,315,786.0840000059688,response,eR.jpg,d,keypress(j),304096.799999997,304087.90000000596,303285.15,303288.60000000894,303301.816,304118.45,
フィードバック(0.5秒),canvas.Screen,11_14_4,2023-01-06T04:18:30.854Z,,,d,,,315,533.3119999999763,timeout,eR.jpg,,,304603.700000003,304601.764,304101.784,304114.299999997,304118.45,304651.762,
トライアル,flow.Sequence,11_14,2023-01-06T04:18:30.854Z,,,d,,,315,3333.2000000000116,completion,eR.jpg,,,304603.90000000596,304601.764,301251.898,301254.299999997,301268.564,304651.762,
空白時間1 (0.5秒),canvas.Screen,11_15_0,2023-01-06T04:18:31.388Z,,,d,,,225,499.9800000000396,timeout,eR.jpg,,,305137.40000000596,305135.076,304601.764,304604.10000000894,304651.762,305151.742,
注視(1秒),canvas.Screen,11_15_1,2023-01-06T04:18:32.387Z,,,d,,,225,999.9599999999627,timeout,eR.jpg,,,306136.799999997,306135.036,305135.076,305137.60000000894,305151.742,306151.702,
空白時間2 (0.5秒),canvas.Screen,11_15_2,2023-01-06T04:18:32.874Z,,,d,,,225,483.31400000001304,timeout,eR.jpg,,,306623.700000003,306618.35,306135.036,306137.10000000894,306151.702,306635.016,
刺激提示,canvas.Screen,11_15_3,2023-01-06T04:18:33.832Z,,,d,true,d,225,938.9839999999967,response,eR.jpg,d,keypress(j),307581.60000000894,307574,306618.35,306623.799999997,306635.016,307601.644,
フィードバック(0.5秒),canvas.Screen,11_15_4,2023-01-06T04:18:34.338Z,,,d,,,225,499.9800000000396,timeout,eR.jpg,,,308087.200000003,308084.958,307584.978,307583.40000000596,307601.644,308101.624,
トライアル,flow.Sequence,11_15,2023-01-06T04:18:34.338Z,,,d,,,225,3433.1959999999963,completion,eR.jpg,,,308087.60000000894,308084.958,304601.764,304604,304651.762,308101.624,
タスクのセット,flow.Loop,11,2023-01-06T04:18:34.338Z,,,,,,,56749.12399999998,completion,,,,308087.799999997,308084.958,251319.168,251321,251335.834,308101.624,
空白時間1 (0.5秒),canvas.Screen,12_0_0,2023-01-06T04:18:34.837Z,,,d,,,180,566.6439999999711,timeout,eR.jpg,,,308587,308584.938,308084.958,308088,308101.624,308668.268,
注視(1秒),canvas.Screen,12_0_1,2023-01-06T04:18:35.904Z,,,d,,,180,999.960000000021,timeout,eR.jpg,,,309653.700000003,309651.562,308584.938,308587.200000003,308668.268,309668.228,
空白時間2 (0.5秒),canvas.Screen,12_0_2,2023-01-06T04:18:36.404Z,,,d,,,180,499.9799999999814,timeout,eR.jpg,,,310154,310151.542,309651.562,309653.799999997,309668.228,310168.208,
刺激提示,canvas.Screen,12_0_3,2023-01-06T04:18:37.374Z,,,d,true,d,180,948.6920000059763,response,eR.jpg,d,keypress(j),311123.299999997,311116.90000000596,310151.542,310154.200000003,310168.208,311151.502,
フィードバック(0.5秒),canvas.Screen,12_0_4,2023-01-06T04:18:37.888Z,,,d,,,180,500.2510000000475,timeout,eR.jpg,,,311637.60000000894,311635.087,311134.836,311139.60000000894,311151.502,311651.753,
トライアル,flow.Sequence,12_0,2023-01-06T04:18:37.889Z,,,d,,,180,3533.462999999989,completion,eR.jpg,,,311638.5,311635.087,308084.958,308088,308101.624,311651.753,
空白時間1 (0.5秒),canvas.Screen,12_1_0,2023-01-06T04:18:38.389Z,,,d,,,45,499.9799999999814,timeout,eR.jpg,,,312138.799999997,312135.067,311635.087,311638.700000003,311651.753,312151.733,
注視(1秒),canvas.Screen,12_1_1,2023-01-06T04:18:39.389Z,,,d,,,45,999.960000000021,timeout,eR.jpg,,,313138.10000000894,313135.027,312135.067,312139.299999997,312151.733,313151.693,
空白時間2 (0.5秒),canvas.Screen,12_1_2,2023-01-06T04:18:39.910Z,,,d,,,45,516.6459999999497,timeout,eR.jpg,,,313659,313651.673,313135.027,313138.299999997,313151.693,313668.339,
刺激提示,canvas.Screen,12_1_3,2023-01-06T04:18:41.451Z,,,d,true,d,45,1526.2610000089626,response,eR.jpg,d,keypress(j),315200.799999997,315194.60000000894,313651.673,313659.200000003,313668.339,315218.277,
フィードバック(0.5秒),canvas.Screen,12_1_4,2023-01-06T04:18:41.955Z,,,d,,,45,499.9799999999814,timeout,eR.jpg,,,315704.10000000894,315701.591,315201.611,315224.5,315218.277,315718.257,
トライアル,flow.Sequence,12_1,2023-01-06T04:18:41.955Z,,,d,,,45,4049.837999999989,completion,eR.jpg,,,315704.299999997,315701.591,311635.087,311638.700000003,311651.753,315718.257,
空白時間1 (0.5秒),canvas.Screen,12_2_0,2023-01-06T04:18:42.454Z,,,d,,,0,499.9800000000396,timeout,eR.jpg,,,316203.40000000596,316201.571,315701.591,315704.40000000596,315718.257,316218.237,
注視(1秒),canvas.Screen,12_2_1,2023-01-06T04:18:43.453Z,,,d,,,0,999.9599999999627,timeout,eR.jpg,,,317202.299999997,317201.531,316201.571,316203.60000000894,316218.237,317218.197,
空白時間2 (0.5秒),canvas.Screen,12_2_2,2023-01-06T04:18:43.955Z,,,d,,,0,499.9800000000396,timeout,eR.jpg,,,317703.90000000596,317701.511,317201.531,317202.40000000596,317218.197,317718.177,
刺激提示,canvas.Screen,12_2_3,2023-01-06T04:18:44.829Z,,,d,true,d,0,851.4230000089156,response,eR.jpg,d,keypress(j),318578,318569.60000000894,317701.511,317704.10000000894,317718.177,318634.807,
フィードバック(0.5秒),canvas.Screen,12_2_4,2023-01-06T04:18:45.370Z,,,d,,,0,499.9800000000396,timeout,eR.jpg,,,319119.700000003,319118.121,318584.809,318595,318634.807,319134.787,
トライアル,flow.Sequence,12_2,2023-01-06T04:18:45.371Z,,,d,,,0,3399.8640000000014,completion,eR.jpg,,,319119.90000000596,319118.121,315701.591,315704.40000000596,315718.257,319134.787,
空白時間1 (0.5秒),canvas.Screen,12_3_0,2023-01-06T04:18:45.859Z,,,d,,,135,483.31400000001304,timeout,eR.jpg,,,319608.5,319601.435,319118.121,319120,319134.787,319618.101,
注視(1秒),canvas.Screen,12_3_1,2023-01-06T04:18:46.855Z,,,d,,,135,999.9599999999627,timeout,eR.jpg,,,320603.90000000596,320601.395,319601.435,319608.60000000894,319618.101,320618.061,
空白時間2 (0.5秒),canvas.Screen,12_3_2,2023-01-06T04:18:47.353Z,,,d,,,135,533.3120000000345,timeout,eR.jpg,,,321102.90000000596,321101.375,320601.395,320604,320618.061,321151.373,
刺激提示,canvas.Screen,12_3_3,2023-01-06T04:18:49.147Z,,,d,true,d,135,1736.9269999969983,response,eR.jpg,d,keypress(j),322896.700000003,322888.299999997,321101.375,321103,321151.373,322918.231,
フィードバック(0.5秒),canvas.Screen,12_3_4,2023-01-06T04:18:49.654Z,,,d,,,135,499.9799999999814,timeout,eR.jpg,,,323403.200000003,323401.545,322901.565,322914,322918.231,323418.211,
トライアル,flow.Sequence,12_3,2023-01-06T04:18:49.654Z,,,d,,,135,4266.7579999999725,completion,eR.jpg,,,323403.40000000596,323401.545,319118.121,319120,319134.787,323418.211,
空白時間1 (0.5秒),canvas.Screen,12_4_0,2023-01-06T04:18:50.153Z,,,b,,,45,533.3119999999763,timeout,e.jpg,,,323902.40000000596,323901.525,323401.545,323403.60000000894,323418.211,323951.523,
注視(1秒),canvas.Screen,12_4_1,2023-01-06T04:18:51.187Z,,,b,,,45,999.960000000021,timeout,e.jpg,,,324936.60000000894,324934.817,323901.525,323902.5,323951.523,324951.483,
空白時間2 (0.5秒),canvas.Screen,12_4_2,2023-01-06T04:18:51.688Z,,,b,,,45,533.3119999999763,timeout,e.jpg,,,325437.700000003,325434.797,324934.817,324937,324951.483,325484.795,
刺激提示,canvas.Screen,12_4_3,2023-01-06T04:18:52.926Z,,,b,true,b,45,1185.2050000000163,response,e.jpg,b,keypress(f),326675.40000000596,326670,325434.797,325438,325484.795,326701.413,
フィードバック(0.5秒),canvas.Screen,12_4_4,2023-01-06T04:18:53.438Z,,,b,,,45,533.3119999999763,timeout,e.jpg,,,327187,327184.727,326684.747,326692.60000000894,326701.413,327234.725,
トライアル,flow.Sequence,12_4,2023-01-06T04:18:53.438Z,,,b,,,45,3766.5160000000033,completion,e.jpg,,,327187.40000000596,327184.727,323401.545,323403.60000000894,323418.211,327234.725,
空白時間1 (0.5秒),canvas.Screen,12_5_0,2023-01-06T04:18:53.971Z,,,b,,,0,499.9800000000396,timeout,e.jpg,,,327720.10000000894,327718.039,327184.727,327187.60000000894,327234.725,327734.705,
注視(1秒),canvas.Screen,12_5_1,2023-01-06T04:18:54.971Z,,,b,,,0,999.9599999999627,timeout,e.jpg,,,328720.200000003,328717.999,327718.039,327720.299999997,327734.705,328734.665,
空白時間2 (0.5秒),canvas.Screen,12_5_2,2023-01-06T04:18:55.471Z,,,b,,,0,516.6460000000079,timeout,e.jpg,,,329220.40000000596,329217.979,328717.999,328720.5,328734.665,329251.311,
刺激提示,canvas.Screen,12_5_3,2023-01-06T04:18:56.033Z,,,b,true,b,0,523.3890000029933,response,e.jpg,b,keypress(f),329782.60000000894,329774.700000003,329217.979,329220.5,329251.311,329801.289,
フィードバック(0.5秒),canvas.Screen,12_5_4,2023-01-06T04:18:56.537Z,,,b,,,0,533.3120000000345,timeout,e.jpg,,,330286.10000000894,330284.603,329784.623,329784,329801.289,330334.601,
トライアル,flow.Sequence,12_5,2023-01-06T04:18:56.537Z,,,b,,,0,3049.878000000026,completion,e.jpg,,,330286.40000000596,330284.603,327184.727,327187.5,327234.725,330334.601,
空白時間1 (0.5秒),canvas.Screen,12_6_0,2023-01-06T04:18:57.070Z,,,d,,,270,499.9799999999814,timeout,eR.jpg,,,330819.200000003,330817.915,330284.603,330286.700000003,330334.601,330834.581,
注視(1秒),canvas.Screen,12_6_1,2023-01-06T04:18:58.070Z,,,d,,,270,1016.6259999999893,timeout,eR.jpg,,,331819.40000000596,331817.875,330817.915,330819.299999997,330834.581,331851.207,
空白時間2 (0.5秒),canvas.Screen,12_6_2,2023-01-06T04:18:58.589Z,,,d,,,270,500.2600000000093,timeout,eR.jpg,,,332337.799999997,332334.801,331817.875,331819.60000000894,331851.207,332351.467,
刺激提示,canvas.Screen,12_6_3,2023-01-06T04:18:59.379Z,,,d,true,d,270,771.4330000059563,response,eR.jpg,d,keypress(j),333128,333122.90000000596,332334.801,332338.10000000894,332351.467,333184.767,
フィードバック(0.5秒),canvas.Screen,12_6_4,2023-01-06T04:18:59.920Z,,,d,,,270,499.9799999999814,timeout,eR.jpg,,,333669,333668.081,333134.769,333143.10000000894,333184.767,333684.747,
トライアル,flow.Sequence,12_6,2023-01-06T04:18:59.920Z,,,d,,,270,3333.4799999999814,completion,eR.jpg,,,333669.200000003,333668.081,330284.603,330286.60000000894,330334.601,333684.747,
空白時間1 (0.5秒),canvas.Screen,12_7_0,2023-01-06T04:19:00.421Z,,,d,,,225,499.9800000000396,timeout,eR.jpg,,,334170,334168.061,333668.081,333669.299999997,333684.747,334184.727,
注視(1秒),canvas.Screen,12_7_1,2023-01-06T04:19:01.420Z,,,d,,,225,999.9599999999627,timeout,eR.jpg,,,335169.200000003,335168.021,334168.061,334170.200000003,334184.727,335184.687,
空白時間2 (0.5秒),canvas.Screen,12_7_2,2023-01-06T04:19:01.923Z,,,d,,,225,499.9800000000396,timeout,eR.jpg,,,335671.700000003,335668.001,335168.021,335169.5,335184.687,335684.667,
刺激提示,canvas.Screen,12_7_3,2023-01-06T04:19:03.046Z,,,d,true,d,225,1100.9330000089249,response,eR.jpg,d,keypress(j),336795.299999997,336785.60000000894,335668.001,335671.90000000596,335684.667,336817.955,
フィードバック(0.5秒),canvas.Screen,12_7_4,2023-01-06T04:19:03.553Z,,,d,,,225,499.9799999999814,timeout,eR.jpg,,,337302.200000003,337301.269,336801.289,336813.60000000894,336817.955,337317.935,
トライアル,flow.Sequence,12_7,2023-01-06T04:19:03.553Z,,,d,,,225,3616.521999999997,completion,eR.jpg,,,337302.5,337301.269,333668.081,333669.299999997,333684.747,337317.935,
空白時間1 (0.5秒),canvas.Screen,12_8_0,2023-01-06T04:19:04.054Z,,,b,,,270,533.3119999999763,timeout,e.jpg,,,337803.5,337801.249,337301.269,337302.60000000894,337317.935,337851.247,
注視(1秒),canvas.Screen,12_8_1,2023-01-06T04:19:05.087Z,,,b,,,270,999.960000000021,timeout,e.jpg,,,338836.5,338834.541,337801.249,337803.60000000894,337851.247,338851.207,
空白時間2 (0.5秒),canvas.Screen,12_8_2,2023-01-06T04:19:05.588Z,,,b,,,270,499.9799999999814,timeout,e.jpg,,,339336.799999997,339334.521,338834.541,338836.90000000596,338851.207,339351.187,
刺激提示,canvas.Screen,12_8_3,2023-01-06T04:19:06.405Z,,,b,true,b,270,797.3130000000237,response,e.jpg,b,keypress(f),340153.90000000596,340148.5,339334.521,339337.10000000894,339351.187,340184.487,
フィードバック(0.5秒),canvas.Screen,12_8_4,2023-01-06T04:19:06.934Z,,,b,,,270,583.3099999999977,timeout,e.jpg,,,340683,340667.801,340167.821,340169.200000003,340184.487,340767.797,
トライアル,flow.Sequence,12_8,2023-01-06T04:19:06.934Z,,,b,,,270,3349.86599999998,completion,e.jpg,,,340683.200000003,340667.801,337301.269,337302.5,337317.935,340767.797,
空白時間1 (0.5秒),canvas.Screen,12_9_0,2023-01-06T04:19:07.504Z,,,b,,,225,499.9799999999814,timeout,e.jpg,,,341252.799999997,341251.111,340667.801,340683.299999997,340767.797,341267.777,
注視(1秒),canvas.Screen,12_9_1,2023-01-06T04:19:08.505Z,,,b,,,225,999.960000000021,timeout,e.jpg,,,342253.60000000894,342251.071,341251.111,341252.90000000596,341267.777,342267.737,
空白時間2 (0.5秒),canvas.Screen,12_9_2,2023-01-06T04:19:09.003Z,,,b,,,225,533.5839999999735,timeout,e.jpg,,,342752.299999997,342751.323,342251.071,342253.700000003,342267.737,342801.321,
刺激提示,canvas.Screen,12_9_3,2023-01-06T04:19:09.795Z,,,b,true,b,225,733.2790000089444,response,e.jpg,b,keypress(f),343543.90000000596,343534.60000000894,342751.323,342752.5,342801.321,343567.957,
フィードバック(0.5秒),canvas.Screen,12_9_4,2023-01-06T04:19:10.303Z,,,b,,,225,499.9799999999814,timeout,e.jpg,,,344052.299999997,344051.271,343551.291,343545.60000000894,343567.957,344067.937,
トライアル,flow.Sequence,12_9,2023-01-06T04:19:10.303Z,,,b,,,225,3283.4739999999874,completion,e.jpg,,,344052.40000000596,344051.271,340667.801,340683.299999997,340767.797,344067.937,
空白時間1 (0.5秒),canvas.Screen,12_10_0,2023-01-06T04:19:10.805Z,,,b,,,90,533.3120000000345,timeout,e.jpg,,,344553.60000000894,344551.251,344051.271,344052.60000000894,344067.937,344601.249,
注視(1秒),canvas.Screen,12_10_1,2023-01-06T04:19:11.838Z,,,b,,,90,999.9599999999627,timeout,e.jpg,,,345587,345584.543,344551.251,344553.799999997,344601.249,345601.209,
空白時間2 (0.5秒),canvas.Screen,12_10_2,2023-01-06T04:19:12.338Z,,,b,,,90,533.3120000000345,timeout,e.jpg,,,346087.5,346084.523,345584.543,345587.299999997,345601.209,346134.521,
刺激提示,canvas.Screen,12_10_3,2023-01-06T04:19:13.215Z,,,b,false,b,90,825.7789999970119,response,e.jpg,d,keypress(j),346964.40000000596,346960.299999997,346084.523,346087.700000003,346134.521,346984.487,
フィードバック(0.5秒),canvas.Screen,12_10_4,2023-01-06T04:19:13.721Z,,,b,,,90,533.3119999999763,timeout,e.jpg,,,347469.799999997,347467.801,346967.821,346978.90000000596,346984.487,347517.799,
トライアル,flow.Sequence,12_10,2023-01-06T04:19:13.721Z,,,b,,,90,3399.8640000000014,completion,e.jpg,,,347470.10000000894,347467.801,344051.271,344052.5,344067.937,347517.799,
空白時間1 (0.5秒),canvas.Screen,12_11_0,2023-01-06T04:19:14.253Z,,,b,,,315,499.9799999999814,timeout,e.jpg,,,348002.200000003,348001.113,347467.801,347470.200000003,347517.799,348017.779,
注視(1秒),canvas.Screen,12_11_1,2023-01-06T04:19:15.253Z,,,b,,,315,1033.2920000000158,timeout,e.jpg,,,349002.299999997,349001.073,348001.113,348002.40000000596,348017.779,349051.071,
空白時間2 (0.5秒),canvas.Screen,12_11_2,2023-01-06T04:19:15.788Z,,,b,,,315,499.9799999999814,timeout,e.jpg,,,349536.700000003,349534.385,349001.073,349002.40000000596,349051.071,349551.051,
刺激提示,canvas.Screen,12_11_3,2023-01-06T04:19:16.506Z,,,b,true,b,315,698.1490000030026,response,e.jpg,b,keypress(f),350254.40000000596,350249.200000003,349534.385,349537.200000003,349551.051,350284.355,
フィードバック(0.5秒),canvas.Screen,12_11_4,2023-01-06T04:19:17.021Z,,,b,,,315,533.3120000000345,timeout,e.jpg,,,350769.90000000596,350767.669,350267.689,350269,350284.355,350817.667,
トライアル,flow.Sequence,12_11,2023-01-06T04:19:17.021Z,,,b,,,315,3249.8699999999953,completion,e.jpg,,,350770.200000003,350767.669,347467.801,347470.200000003,347517.799,350817.667,
空白時間1 (0.5秒),canvas.Screen,12_12_0,2023-01-06T04:19:17.726Z,,,d,,,90,649.9739999999874,timeout,eR.jpg,,,351475,351284.315,350767.669,350770.90000000596,350817.667,351467.641,
注視(1秒),canvas.Screen,12_12_1,2023-01-06T04:19:18.703Z,,,d,,,90,1049.9579999999842,timeout,eR.jpg,,,352452,352450.935,351284.315,351475.5,351467.641,352517.599,
空白時間2 (0.5秒),canvas.Screen,12_12_2,2023-01-06T04:19:19.253Z,,,d,,,90,500.2480000000214,timeout,eR.jpg,,,353002.200000003,353001.181,352450.935,352452.200000003,352517.599,353017.847,
刺激提示,canvas.Screen,12_12_3,2023-01-06T04:19:20.636Z,,,d,true,d,90,1362.1529999999912,response,eR.jpg,d,keypress(j),354385.10000000894,354380,353001.181,353002.40000000596,353017.847,354401.125,
フィードバック(0.5秒),canvas.Screen,12_12_4,2023-01-06T04:19:21.138Z,,,d,,,90,499.9799999999814,timeout,eR.jpg,,,354886.5,354884.439,354384.459,354400.799999997,354401.125,354901.105,
トライアル,flow.Sequence,12_12,2023-01-06T04:19:21.138Z,,,d,,,90,4066.771999999997,completion,eR.jpg,,,354886.700000003,354884.439,350767.669,350770.799999997,350817.667,354901.105,
空白時間1 (0.5秒),canvas.Screen,12_13_0,2023-01-06T04:19:21.704Z,,,b,,,135,533.3120000000345,timeout,e.jpg,,,355452.5,355417.751,354884.439,354886.799999997,354901.105,355434.417,
注視(1秒),canvas.Screen,12_13_1,2023-01-06T04:19:22.670Z,,,b,,,135,999.9599999999627,timeout,e.jpg,,,356419.299999997,356417.711,355417.751,355452.60000000894,355434.417,356434.377,
空白時間2 (0.5秒),canvas.Screen,12_13_2,2023-01-06T04:19:23.172Z,,,b,,,135,566.6440000000293,timeout,e.jpg,,,356920.40000000596,356917.691,356417.711,356419.40000000596,356434.377,357001.021,
刺激提示,canvas.Screen,12_13_3,2023-01-06T04:19:24.488Z,,,b,true,b,135,1229.978999999992,response,e.jpg,b,keypress(f),358236.40000000596,358231,356917.691,356920.5,357001.021,358250.971,
フィードバック(0.5秒),canvas.Screen,12_13_4,2023-01-06T04:19:24.988Z,,,b,,,135,499.9799999999814,timeout,e.jpg,,,358736.700000003,358734.285,358234.305,358253.60000000894,358250.971,358750.951,
トライアル,flow.Sequence,12_13,2023-01-06T04:19:24.988Z,,,b,,,135,3833.179999999993,completion,e.jpg,,,358737.200000003,358734.285,354884.439,354886.799999997,354901.105,358750.951,
空白時間1 (0.5秒),canvas.Screen,12_14_0,2023-01-06T04:19:25.488Z,,,d,,,315,566.6439999999711,timeout,eR.jpg,,,359237.10000000894,359234.265,358734.285,358737.299999997,358750.951,359317.595,
注視(1秒),canvas.Screen,12_14_1,2023-01-06T04:19:26.554Z,,,d,,,315,999.960000000021,timeout,eR.jpg,,,360302.700000003,360300.889,359234.265,359237.299999997,359317.595,360317.555,
空白時間2 (0.5秒),canvas.Screen,12_14_2,2023-01-06T04:19:27.053Z,,,d,,,315,549.9780000000028,timeout,eR.jpg,,,360802.200000003,360800.869,360300.889,360302.799999997,360317.555,360867.533,
刺激提示,canvas.Screen,12_14_3,2023-01-06T04:19:27.913Z,,,d,true,d,315,789.3670000059647,response,eR.jpg,d,keypress(j),361661.60000000894,361656.90000000596,360800.869,360802.299999997,360867.533,361684.167,
フィードバック(0.5秒),canvas.Screen,12_14_4,2023-01-06T04:19:28.421Z,,,d,,,315,533.3119999999763,timeout,eR.jpg,,,362170.200000003,362167.481,361667.501,361662.90000000596,361684.167,362217.479,
トライアル,flow.Sequence,12_14,2023-01-06T04:19:28.422Z,,,d,,,315,3416.530000000028,completion,eR.jpg,,,362171.200000003,362167.481,358734.285,358737.200000003,358750.951,362217.479,
空白時間1 (0.5秒),canvas.Screen,12_15_0,2023-01-06T04:19:28.953Z,,,b,,,180,499.9799999999814,timeout,e.jpg,,,362702.200000003,362700.793,362167.481,362171.40000000596,362217.479,362717.459,
注視(1秒),canvas.Screen,12_15_1,2023-01-06T04:19:29.954Z,,,b,,,180,1000.2270000000135,timeout,e.jpg,,,363702.299999997,363701.02,362700.793,362702.40000000596,362717.459,363717.686,
空白時間2 (0.5秒),canvas.Screen,12_15_2,2023-01-06T04:19:30.453Z,,,b,,,180,533.3120000000345,timeout,e.jpg,,,364202.200000003,364201,363701.02,363702.40000000596,363717.686,364250.998,
刺激提示,canvas.Screen,12_15_3,2023-01-06T04:19:32.033Z,,,b,true,b,180,1523.0019999999786,response,e.jpg,b,keypress(f),365781.5,365774,364201,364202.299999997,364250.998,365800.936,
フィードバック(0.5秒),canvas.Screen,12_15_4,2023-01-06T04:19:32.537Z,,,b,,,180,499.9800000000396,timeout,e.jpg,,,366285.90000000596,366284.25,365784.27,365797.700000003,365800.936,366300.916,
トライアル,flow.Sequence,12_15,2023-01-06T04:19:32.538Z,,,b,,,180,4066.771000000008,completion,e.jpg,,,366286.299999997,366284.25,362167.481,362171.299999997,362217.479,366300.916,
タスクのセット,flow.Loop,12,2023-01-06T04:19:32.538Z,,,,,,,58182.62599999999,completion,,,,366286.40000000596,366284.25,308084.958,308088,308101.624,366300.916,
空白時間1 (0.5秒),canvas.Screen,13_0_0,2023-01-06T04:19:33.038Z,,,d,,,45,533.3119999999763,timeout,eR.jpg,,,366786.90000000596,366784.23,366284.25,366286.700000003,366300.916,366834.228,
注視(1秒),canvas.Screen,13_0_1,2023-01-06T04:19:34.070Z,,,d,,,45,999.960000000021,timeout,eR.jpg,,,367818.90000000596,367817.522,366784.23,366787.10000000894,366834.228,367834.188,
空白時間2 (0.5秒),canvas.Screen,13_0_2,2023-01-06T04:19:34.571Z,,,d,,,45,499.9799999999814,timeout,eR.jpg,,,368319.60000000894,368317.502,367817.522,367819.10000000894,367834.188,368334.168,
刺激提示,canvas.Screen,13_0_3,2023-01-06T04:19:36.130Z,,,d,true,d,45,1537.532000002975,response,eR.jpg,d,keypress(j),369878.40000000596,369871.700000003,368317.502,368319.799999997,368334.168,369900.772,
フィードバック(0.5秒),canvas.Screen,13_0_4,2023-01-06T04:19:36.638Z,,,d,,,45,533.3119999999763,timeout,eR.jpg,,,370386.90000000596,370384.086,369884.106,369897.5,369900.772,370434.084,
トライアル,flow.Sequence,13_0,2023-01-06T04:19:36.639Z,,,d,,,45,4083.1699999999837,completion,eR.jpg,,,370387.200000003,370384.086,366284.25,366286.60000000894,366300.916,370434.084,
空白時間1 (0.5秒),canvas.Screen,13_1_0,2023-01-06T04:19:37.170Z,,,b,,,315,499.9800000000396,timeout,e.jpg,,,370919.10000000894,370917.398,370384.086,370387.5,370434.084,370934.064,
注視(1秒),canvas.Screen,13_1_1,2023-01-06T04:19:38.170Z,,,b,,,315,1033.2920000000158,timeout,e.jpg,,,371918.799999997,371917.358,370917.398,370919.299999997,370934.064,371967.356,
空白時間2 (0.5秒),canvas.Screen,13_1_2,2023-01-06T04:19:38.704Z,,,b,,,315,499.9799999999814,timeout,e.jpg,,,372452.40000000596,372450.67,371917.358,371918.90000000596,371967.356,372467.336,
刺激提示,canvas.Screen,13_1_3,2023-01-06T04:19:39.251Z,,,b,true,b,315,525.2640000089305,response,e.jpg,b,keypress(f),372999.700000003,372992.60000000894,372450.67,372452.60000000894,372467.336,373017.314,
フィードバック(0.5秒),canvas.Screen,13_1_4,2023-01-06T04:19:39.754Z,,,b,,,315,500.2490000000107,timeout,e.jpg,,,373502.5,373500.897,373000.648,373016,373017.314,373517.563,
トライアル,flow.Sequence,13_1,2023-01-06T04:19:39.754Z,,,b,,,315,3066.8130000000237,completion,e.jpg,,,373502.60000000894,373500.897,370384.086,370387.40000000596,370434.084,373517.563,
空白時間1 (0.5秒),canvas.Screen,13_2_0,2023-01-06T04:19:40.254Z,,,b,,,135,516.6459999999497,timeout,e.jpg,,,374002.200000003,374000.877,373500.897,373502.799999997,373517.563,374034.209,
注視(1秒),canvas.Screen,13_2_1,2023-01-06T04:19:41.270Z,,,b,,,135,999.960000000021,timeout,e.jpg,,,375019,375017.503,374000.877,374002.40000000596,374034.209,375034.169,
空白時間2 (0.5秒),canvas.Screen,13_2_2,2023-01-06T04:19:41.771Z,,,b,,,135,533.3120000000345,timeout,e.jpg,,,375519.299999997,375517.483,375017.503,375019.299999997,375034.169,375567.481,
刺激提示,canvas.Screen,13_2_3,2023-01-06T04:19:43.147Z,,,b,false,b,135,1320.0189999999711,response,e.jpg,d,keypress(j),376895.60000000894,376887.5,375517.483,375519.5,375567.481,376917.427,
フィードバック(0.5秒),canvas.Screen,13_2_4,2023-01-06T04:19:43.654Z,,,b,,,135,499.9799999999814,timeout,e.jpg,,,377402.299999997,377400.741,376900.761,376912.5,376917.427,377417.407,
トライアル,flow.Sequence,13_2,2023-01-06T04:19:43.654Z,,,b,,,135,3883.1779999999562,completion,e.jpg,,,377402.5,377400.741,373500.897,373502.700000003,373517.563,377417.407,
空白時間1 (0.5秒),canvas.Screen,13_3_0,2023-01-06T04:19:44.154Z,,,b,,,180,499.9799999999814,timeout,e.jpg,,,377902.299999997,377900.721,377400.741,377402.60000000894,377417.407,377917.387,
注視(1秒),canvas.Screen,13_3_1,2023-01-06T04:19:45.154Z,,,b,,,180,999.960000000021,timeout,e.jpg,,,378902.200000003,378900.681,377900.721,377902.5,377917.387,378917.347,
空白時間2 (0.5秒),canvas.Screen,13_3_2,2023-01-06T04:19:45.656Z,,,b,,,180,516.6460000000079,timeout,e.jpg,,,379404.299999997,379383.995,378900.681,378902.5,378917.347,379433.993,
刺激提示,canvas.Screen,13_3_3,2023-01-06T04:19:47.199Z,,,b,true,b,180,1507.5069999999832,response,e.jpg,b,keypress(f),380947.10000000894,380941.5,379383.995,379404.40000000596,379433.993,381017.263,
フィードバック(0.5秒),canvas.Screen,13_3_4,2023-01-06T04:19:47.754Z,,,b,,,180,499.9800000000396,timeout,e.jpg,,,381502.200000003,381500.577,380950.599,380964.299999997,381017.263,381517.243,
トライアル,flow.Sequence,13_3,2023-01-06T04:19:47.754Z,,,b,,,180,4083.1699999999837,completion,e.jpg,,,381502.5,381500.577,377400.741,377402.5,377417.407,381517.243,
空白時間1 (0.5秒),canvas.Screen,13_4_0,2023-01-06T04:19:48.254Z,,,b,,,45,499.9799999999814,timeout,e.jpg,,,382002.299999997,382000.557,381500.577,381502.60000000894,381517.243,382017.223,
注視(1秒),canvas.Screen,13_4_1,2023-01-06T04:19:49.254Z,,,b,,,45,999.960000000021,timeout,e.jpg,,,383002.200000003,383000.517,382000.557,382002.5,382017.223,383017.183,
空白時間2 (0.5秒),canvas.Screen,13_4_2,2023-01-06T04:19:49.754Z,,,b,,,45,499.9799999999814,timeout,e.jpg,,,383502.200000003,383500.497,383000.517,383002.299999997,383017.183,383517.163,
刺激提示,canvas.Screen,13_4_3,2023-01-06T04:19:50.484Z,,,b,true,b,45,707.3369999999995,response,e.jpg,b,keypress(f),384232.200000003,384224.5,383500.497,383502.40000000596,383517.163,384250.742,
フィードバック(0.5秒),canvas.Screen,13_4_4,2023-01-06T04:19:50.988Z,,,b,,,45,533.3119999999763,timeout,e.jpg,,,384736.60000000894,384734.056,384234.076,384248.700000003,384250.742,384784.054,
トライアル,flow.Sequence,13_4,2023-01-06T04:19:50.989Z,,,b,,,45,3216.8129999999655,completion,e.jpg,,,384737.40000000596,384734.056,381500.577,381502.60000000894,381517.243,384784.054,
空白時間1 (0.5秒),canvas.Screen,13_5_0,2023-01-06T04:19:51.522Z,,,b,,,0,499.9799999999814,timeout,e.jpg,,,385270.40000000596,385267.368,384734.056,384737.5,384784.054,385284.034,
注視(1秒),canvas.Screen,13_5_1,2023-01-06T04:19:52.522Z,,,b,,,0,999.960000000021,timeout,e.jpg,,,386270.60000000894,386267.328,385267.368,385270.700000003,385284.034,386283.994,
空白時間2 (0.5秒),canvas.Screen,13_5_2,2023-01-06T04:19:53.021Z,,,b,,,0,533.3119999999763,timeout,e.jpg,,,386769.200000003,386767.308,386267.328,386270.90000000596,386283.994,386817.306,
刺激提示,canvas.Screen,13_5_3,2023-01-06T04:19:53.649Z,,,b,true,b,0,572.8940000029979,response,e.jpg,b,keypress(f),387397.799999997,387390.200000003,386767.308,386769.5,386817.306,387417.282,
フィードバック(0.5秒),canvas.Screen,13_5_4,2023-01-06T04:19:54.154Z,,,b,,,0,533.3119999999763,timeout,e.jpg,,,387902.200000003,387900.596,387400.616,387400.10000000894,387417.282,387950.594,
トライアル,flow.Sequence,13_5,2023-01-06T04:19:54.154Z,,,b,,,0,3116.542000000016,completion,e.jpg,,,387902.5,387900.596,384734.056,384737.5,384784.054,387950.594,
空白時間1 (0.5秒),canvas.Screen,13_6_0,2023-01-06T04:19:54.688Z,,,d,,,270,499.9800000000396,timeout,eR.jpg,,,388436.40000000596,388433.908,387900.596,387902.5,387950.594,388450.574,
注視(1秒),canvas.Screen,13_6_1,2023-01-06T04:19:55.688Z,,,d,,,270,999.9599999999627,timeout,eR.jpg,,,389436.10000000894,389433.868,388433.908,388436.90000000596,388450.574,389450.534,
空白時間2 (0.5秒),canvas.Screen,13_6_2,2023-01-06T04:19:56.188Z,,,d,,,270,533.3120000000345,timeout,eR.jpg,,,389936.299999997,389933.848,389433.868,389436.299999997,389450.534,389983.846,
刺激提示,canvas.Screen,13_6_3,2023-01-06T04:19:57.065Z,,,d,true,d,270,825.2540000089211,response,eR.jpg,d,keypress(j),390813.700000003,390809.10000000894,389933.848,389937,389983.846,390833.812,
フィードバック(0.5秒),canvas.Screen,13_6_4,2023-01-06T04:19:57.570Z,,,d,,,270,533.3120000000345,timeout,eR.jpg,,,391318.40000000596,391317.126,390817.146,390827.90000000596,390833.812,391367.124,
トライアル,flow.Sequence,13_6,2023-01-06T04:19:57.570Z,,,d,,,270,3366.5320000000065,completion,eR.jpg,,,391318.700000003,391317.126,387900.596,387902.5,387950.594,391367.124,
空白時間1 (0.5秒),canvas.Screen,13_7_0,2023-01-06T04:19:58.104Z,,,d,,,315,499.9799999999814,timeout,eR.jpg,,,391852.299999997,391850.438,391317.126,391318.799999997,391367.124,391867.104,
注視(1秒),canvas.Screen,13_7_1,2023-01-06T04:19:59.104Z,,,d,,,315,999.960000000021,timeout,eR.jpg,,,392852.200000003,392850.398,391850.438,391852.40000000596,391867.104,392867.064,
空白時間2 (0.5秒),canvas.Screen,13_7_2,2023-01-06T04:19:59.604Z,,,d,,,315,499.9799999999814,timeout,eR.jpg,,,393352.200000003,393350.378,392850.398,392852.40000000596,392867.064,393367.044,
刺激提示,canvas.Screen,13_7_3,2023-01-06T04:20:00.338Z,,,d,true,d,315,712.0560000089463,response,eR.jpg,d,keypress(j),394085.90000000596,394079.10000000894,393350.378,393352.40000000596,393367.044,394100.348,
フィードバック(0.5秒),canvas.Screen,13_7_4,2023-01-06T04:20:00.837Z,,,d,,,315,500.25699999998324,timeout,eR.jpg,,,394585.700000003,394583.939,394083.682,394087.40000000596,394100.348,394600.605,
トライアル,flow.Sequence,13_7,2023-01-06T04:20:00.838Z,,,d,,,315,3216.8150000000023,completion,eR.jpg,,,394586.10000000894,394583.939,391317.126,391318.799999997,391367.124,394600.605,
空白時間1 (0.5秒),canvas.Screen,13_8_0,2023-01-06T04:20:01.338Z,,,b,,,270,499.9800000000396,timeout,e.jpg,,,395086,395083.919,394583.939,394586.200000003,394600.605,395100.585,
注視(1秒),canvas.Screen,13_8_1,2023-01-06T04:20:02.338Z,,,b,,,270,1033.2919999999576,timeout,e.jpg,,,396085.90000000596,396083.879,395083.919,395086.299999997,395100.585,396133.877,
空白時間2 (0.5秒),canvas.Screen,13_8_2,2023-01-06T04:20:02.871Z,,,b,,,270,499.9800000000396,timeout,e.jpg,,,396618.90000000596,396617.191,396083.879,396086.10000000894,396133.877,396633.857,
刺激提示,canvas.Screen,13_8_3,2023-01-06T04:20:03.557Z,,,b,true,b,270,666.0430000059423,response,e.jpg,b,keypress(f),397304.90000000596,397299.90000000596,396617.191,396619.10000000894,396633.857,397367.161,
フィードバック(0.5秒),canvas.Screen,13_8_4,2023-01-06T04:20:04.104Z,,,b,,,270,499.9799999999814,timeout,e.jpg,,,397852.299999997,397850.475,397317.163,397334.5,397367.161,397867.141,
トライアル,flow.Sequence,13_8,2023-01-06T04:20:04.104Z,,,b,,,270,3249.8699999999953,completion,e.jpg,,,397852.5,397850.475,394583.939,394586.200000003,394600.605,397867.141,
空白時間1 (0.5秒),canvas.Screen,13_9_0,2023-01-06T04:20:04.604Z,,,d,,,225,533.3119999999763,timeout,eR.jpg,,,398352.299999997,398350.455,397850.475,397852.60000000894,397867.141,398400.453,
注視(1秒),canvas.Screen,13_9_1,2023-01-06T04:20:05.638Z,,,d,,,225,999.960000000021,timeout,eR.jpg,,,399386.5,399383.747,398350.455,398352.40000000596,398400.453,399400.413,
空白時間2 (0.5秒),canvas.Screen,13_9_2,2023-01-06T04:20:06.138Z,,,d,,,225,533.3119999999763,timeout,eR.jpg,,,399885.90000000596,399883.727,399383.747,399386.700000003,399400.413,399933.725,
刺激提示,canvas.Screen,13_9_3,2023-01-06T04:20:06.914Z,,,d,true,d,225,723.074999997043,response,eR.jpg,d,keypress(j),400662.60000000894,400656.799999997,399883.727,399886.200000003,399933.725,400683.695,
フィードバック(0.5秒),canvas.Screen,13_9_4,2023-01-06T04:20:07.422Z,,,d,,,225,499.9799999999814,timeout,eR.jpg,,,401170,401167.009,400667.029,400679,400683.695,401183.675,
トライアル,flow.Sequence,13_9,2023-01-06T04:20:07.422Z,,,d,,,225,3299.8680000000168,completion,eR.jpg,,,401170.40000000596,401167.009,397850.475,397852.60000000894,397867.141,401183.675,
空白時間1 (0.5秒),canvas.Screen,13_10_0,2023-01-06T04:20:07.917Z,,,d,,,90,483.31400000001304,timeout,eR.jpg,,,401665.5,401650.323,401167.009,401170.60000000894,401183.675,401666.989,
注視(1秒),canvas.Screen,13_10_1,2023-01-06T04:20:08.904Z,,,d,,,90,999.960000000021,timeout,eR.jpg,,,402652.200000003,402650.283,401650.323,401665.60000000894,401666.989,402666.949,
空白時間2 (0.5秒),canvas.Screen,13_10_2,2023-01-06T04:20:09.403Z,,,d,,,90,533.3119999999763,timeout,eR.jpg,,,403151.299999997,403150.263,402650.283,402652.299999997,402666.949,403200.261,
刺激提示,canvas.Screen,13_10_3,2023-01-06T04:20:10.399Z,,,d,true,d,90,942.5389999970212,response,eR.jpg,d,keypress(j),404147.60000000894,404142.799999997,403150.263,403151.40000000596,403200.261,404200.221,
フィードバック(0.5秒),canvas.Screen,13_10_4,2023-01-06T04:20:10.938Z,,,d,,,90,500.24400000000605,timeout,eR.jpg,,,404686.200000003,404683.799,404150.223,404148.90000000596,404200.221,404700.465,
トライアル,flow.Sequence,13_10,2023-01-06T04:20:10.938Z,,,d,,,90,3500.1240000000107,completion,eR.jpg,,,404686.5,404683.799,401167.009,401170.60000000894,401183.675,404700.465,
空白時間1 (0.5秒),canvas.Screen,13_11_0,2023-01-06T04:20:11.438Z,,,d,,,135,549.9780000000028,timeout,eR.jpg,,,405186.40000000596,405183.779,404683.799,404686.700000003,404700.465,405250.443,
注視(1秒),canvas.Screen,13_11_1,2023-01-06T04:20:12.488Z,,,d,,,135,999.9599999999627,timeout,eR.jpg,,,406236.200000003,406233.737,405183.779,405186.60000000894,405250.443,406250.403,
空白時間2 (0.5秒),canvas.Screen,13_11_2,2023-01-06T04:20:12.989Z,,,d,,,135,533.3120000000345,timeout,eR.jpg,,,406736.90000000596,406733.717,406233.737,406236.5,406250.403,406783.715,
刺激提示,canvas.Screen,13_11_3,2023-01-06T04:20:13.974Z,,,d,true,d,135,932.8850000089151,response,eR.jpg,d,keypress(j),407722.40000000596,407716.60000000894,406733.717,406737.200000003,406783.715,407750.343,
フィードバック(0.5秒),canvas.Screen,13_11_4,2023-01-06T04:20:14.488Z,,,d,,,135,533.3120000000345,timeout,eR.jpg,,,408236.10000000894,408233.657,407733.677,407737,407750.343,408283.655,
トライアル,flow.Sequence,13_11,2023-01-06T04:20:14.489Z,,,d,,,135,3533.191999999981,completion,eR.jpg,,,408236.700000003,408233.657,404683.799,404686.700000003,404700.465,408283.655,
空白時間1 (0.5秒),canvas.Screen,13_12_0,2023-01-06T04:20:15.021Z,,,b,,,90,499.9799999999814,timeout,e.jpg,,,408769,408766.969,408233.657,408236.90000000596,408283.655,408783.635,
注視(1秒),canvas.Screen,13_12_1,2023-01-06T04:20:16.021Z,,,b,,,90,999.9599999999627,timeout,e.jpg,,,409768.700000003,409766.929,408766.969,408769.200000003,408783.635,409783.595,
空白時間2 (0.5秒),canvas.Screen,13_12_2,2023-01-06T04:20:16.522Z,,,b,,,90,499.9800000000396,timeout,e.jpg,,,410270.299999997,410266.909,409766.929,409768.90000000596,409783.595,410283.575,
刺激提示,canvas.Screen,13_12_3,2023-01-06T04:20:17.599Z,,,b,true,b,90,1056.9249999999884,response,e.jpg,b,keypress(f),411346.799999997,411340.5,410266.909,410270.60000000894,410283.575,411366.865,
フィードバック(0.5秒),canvas.Screen,13_12_4,2023-01-06T04:20:18.104Z,,,b,,,90,533.3120000000345,timeout,e.jpg,,,411852.10000000894,411850.179,411350.199,411363.700000003,411366.865,411900.177,
トライアル,flow.Sequence,13_12,2023-01-06T04:20:18.104Z,,,b,,,90,3566.523999999976,completion,e.jpg,,,411852.299999997,411850.179,408233.657,408236.90000000596,408283.655,411900.177,
空白時間1 (0.5秒),canvas.Screen,13_13_0,2023-01-06T04:20:18.638Z,,,d,,,0,499.9799999999814,timeout,eR.jpg,,,412386,412383.491,411850.179,411852.5,411900.177,412400.157,
注視(1秒),canvas.Screen,13_13_1,2023-01-06T04:20:19.638Z,,,d,,,0,1033.2920000000158,timeout,eR.jpg,,,413386.200000003,413383.451,412383.491,412386.299999997,412400.157,413433.449,
空白時間2 (0.5秒),canvas.Screen,13_13_2,2023-01-06T04:20:20.170Z,,,d,,,0,499.9799999999814,timeout,eR.jpg,,,413918.5,413916.763,413383.451,413386.40000000596,413433.449,413933.429,
刺激提示,canvas.Screen,13_13_3,2023-01-06T04:20:21.179Z,,,d,true,d,0,988.9710000059567,response,eR.jpg,d,keypress(j),414927.299999997,414922.40000000596,413916.763,413918.60000000894,413933.429,414950.055,
フィードバック(0.5秒),canvas.Screen,13_13_4,2023-01-06T04:20:21.689Z,,,d,,,0,533.5929999999935,timeout,eR.jpg,,,415436.90000000596,415433.65,414933.389,414949.90000000596,414950.055,415483.648,
トライアル,flow.Sequence,13_13,2023-01-06T04:20:21.689Z,,,d,,,0,3533.472999999998,completion,eR.jpg,,,415437.200000003,415433.65,411850.179,411852.40000000596,411900.177,415483.648,
空白時間1 (0.5秒),canvas.Screen,13_14_0,2023-01-06T04:20:22.221Z,,,b,,,225,499.9800000000396,timeout,e.jpg,,,415969.200000003,415966.962,415433.65,415437.40000000596,415483.648,415983.628,
注視(1秒),canvas.Screen,13_14_1,2023-01-06T04:20:23.222Z,,,b,,,225,999.9599999999627,timeout,e.jpg,,,416970.200000003,416966.922,415966.962,415970.200000003,415983.628,416983.588,
空白時間2 (0.5秒),canvas.Screen,13_14_2,2023-01-06T04:20:23.721Z,,,b,,,225,533.3120000000345,timeout,e.jpg,,,417468.799999997,417466.902,416966.922,416970.5,416983.588,417516.9,
刺激提示,canvas.Screen,13_14_3,2023-01-06T04:20:24.958Z,,,b,true,b,225,1184.3999999969965,response,e.jpg,b,keypress(f),418706.200000003,418701.299999997,417466.902,417468.90000000596,417516.9,418733.518,
フィードバック(0.5秒),canvas.Screen,13_14_4,2023-01-06T04:20:25.470Z,,,b,,,225,499.9800000000396,timeout,e.jpg,,,419218,419216.832,418716.852,418722.299999997,418733.518,419233.498,
トライアル,flow.Sequence,13_14,2023-01-06T04:20:25.470Z,,,b,,,225,3733.1840000000084,completion,e.jpg,,,419218.40000000596,419216.832,415433.65,415437.40000000596,415483.648,419233.498,
空白時間1 (0.5秒),canvas.Screen,13_15_0,2023-01-06T04:20:25.971Z,,,d,,,180,499.9799999999814,timeout,eR.jpg,,,419719.10000000894,419716.812,419216.832,419218.5,419233.498,419733.478,
注視(1秒),canvas.Screen,13_15_1,2023-01-06T04:20:26.958Z,,,d,,,180,983.2939999999944,timeout,eR.jpg,,,420705.40000000596,420700.106,419716.812,419719.299999997,419733.478,420716.772,
空白時間2 (0.5秒),canvas.Screen,13_15_2,2023-01-06T04:20:27.454Z,,,d,,,180,499.9799999999814,timeout,eR.jpg,,,421202.200000003,421200.086,420700.106,420705.90000000596,420716.772,421216.752,
刺激提示,canvas.Screen,13_15_3,2023-01-06T04:20:28.965Z,,,d,true,d,180,1490.4480000030017,response,eR.jpg,d,keypress(j),422712.60000000894,422707.200000003,421200.086,421202.40000000596,421216.752,422733.358,
フィードバック(0.5秒),canvas.Screen,13_15_4,2023-01-06T04:20:29.470Z,,,d,,,180,499.9799999999814,timeout,eR.jpg,,,423217.700000003,423216.672,422716.692,422727.200000003,422733.358,423233.338,
トライアル,flow.Sequence,13_15,2023-01-06T04:20:29.470Z,,,d,,,180,3983.173999999999,completion,eR.jpg,,,423217.90000000596,423216.672,419216.832,419218.5,419233.498,423233.338,
タスクのセット,flow.Loop,13,2023-01-06T04:20:29.470Z,,,,,,,56915.755999999994,completion,,,,423218,423216.672,366284.25,366286.60000000894,366300.916,423233.338,
休憩,canvas.Screen,14,2023-01-06T04:21:29.469Z,,,,,,,59997.600000000035,timeout,,,,483216,483214.272,423216.672,423218.10000000894,423233.338,483230.938,
休憩終了,html.Page,15,2023-01-06T04:21:38.745Z,,,,,,,9260.361999996996,form submission,,,,492491.5,492491.299999997,483214.272,483216.200000003,483230.938,492482.355,
イントロ2,html.Page,16,2023-01-06T04:21:46.420Z,,,,,,,7684.345000002999,form submission,,,,500166.90000000596,500166.700000003,492465.689,492491.60000000894,492482.355,500182.326,
イントロ3,html.Page,17,2023-01-06T04:22:01.789Z,,,,,,,15352.673999999999,form submission,,,,515535.200000003,515535,500165.66,500166.90000000596,500182.326,515548.782,
イントロ4,html.Page,18,2023-01-06T04:22:03.535Z,,,,,,,1732.4180000029737,form submission,,,,517281.200000003,517281.200000003,515532.116,515535.299999997,515548.782,517298.712,
イントロ5,html.Page,19,2023-01-06T04:22:22.129Z,,,,,,,18575.788,form submission,,,,535874.700000003,535874.5,517282.046,517281.40000000596,517298.712,535898.61,
できるだけ早く正確に,canvas.Screen,20,2023-01-06T04:22:23.139Z,,,,,,,999.9599999999627,timeout,,,,536884.6000000089,536881.904,535881.944,535874.900000006,535898.61,536898.57,
空白時間1 (0.5秒),canvas.Screen,21_0_0,2023-01-06T04:22:23.638Z,,,b,,,180,499.9800000000978,timeout,2.jpg,,,537383.799999997,537381.884,536881.904,536885,536898.57,537398.55,
注視(1秒),canvas.Screen,21_0_1,2023-01-06T04:22:24.638Z,,,b,,,180,999.9599999999627,timeout,2.jpg,,,538384.200000003,538381.844,537381.884,537384,537398.55,538398.51,
空白時間2 (0.5秒),canvas.Screen,21_0_2,2023-01-06T04:22:25.138Z,,,b,,,180,499.9799999999814,timeout,2.jpg,,,538884.5,538881.824,538381.844,538384.5,538398.51,538898.49,
刺激提示(練習),canvas.Screen,21_0_3,2023-01-06T04:22:26.502Z,,,b,false,b,180,1343.9100000059698,response,2.jpg,d,keypress(j),540247.5,540242.400000006,538881.824,538884.700000003,538898.49,540265.102,
フィードバック(0.5秒),canvas.Screen,21_0_4,2023-01-06T04:22:27.004Z,,,b,,,180,499.9800000000978,timeout,2.jpg,,,540749.700000003,540748.416,540248.436,540249.5,540265.102,540765.082,
トライアル,flow.Sequence,21_0,2023-01-06T04:22:27.004Z,,,b,,,180,3849.8460000000196,completion,2.jpg,,,540750,540748.416,536881.904,536885,536898.57,540765.082,
空白時間1 (0.5秒),canvas.Screen,21_1_0,2023-01-06T04:22:27.504Z,,,b,,,45,533.311999999918,timeout,2.jpg,,,541250.200000003,541248.396,540748.416,540750.1000000089,540765.082,541298.394,
注視(1秒),canvas.Screen,21_1_1,2023-01-06T04:22:28.538Z,,,b,,,45,999.9600000000792,timeout,2.jpg,,,542284.400000006,542281.688,541248.396,541250.299999997,541298.394,542298.354,
空白時間2 (0.5秒),canvas.Screen,21_1_2,2023-01-06T04:22:29.038Z,,,b,,,45,533.311999999918,timeout,2.jpg,,,542783.900000006,542781.668,542281.688,542284.6000000089,542298.354,542831.666,
刺激提示(練習),canvas.Screen,21_1_3,2023-01-06T04:22:29.736Z,,,b,true,b,45,643.7340000059921,response,2.jpg,b,keypress(f),543482.299999997,543475.400000006,542781.668,542784.1000000089,542831.666,543498.306,
フィードバック(0.5秒),canvas.Screen,21_1_4,2023-01-06T04:22:30.238Z,,,b,,,45,499.9799999999814,timeout,2.jpg,,,543983.799999997,543981.62,543481.64,543498.400000006,543498.306,543998.286,
トライアル,flow.Sequence,21_1,2023-01-06T04:22:30.238Z,,,b,,,45,3216.5379999999423,completion,2.jpg,,,543984.200000003,543981.62,540748.416,540750.1000000089,540765.082,543998.286,
空白時間1 (0.5秒),canvas.Screen,21_2_0,2023-01-06T04:22:30.739Z,,,d,,,90,533.5770000000484,timeout,2R.jpg,,,544484.799999997,544481.865,543981.62,543984.400000006,543998.286,544531.863,
注視(1秒),canvas.Screen,21_2_1,2023-01-06T04:22:31.770Z,,,d,,,90,999.9599999999627,timeout,2R.jpg,,,545516.200000003,545515.157,544481.865,544485,544531.863,545531.823,
空白時間2 (0.5秒),canvas.Screen,21_2_2,2023-01-06T04:22:32.224Z,,,d,,,90,483.31400000001304,timeout,2R.jpg,,,545970,545965.139,545515.157,545516.400000006,545531.823,546015.137,
刺激提示(練習),canvas.Screen,21_2_3,2023-01-06T04:22:33.291Z,,,d,true,d,90,1012.1629999970319,response,2R.jpg,d,keypress(j),547036.700000003,547027.299999997,545965.139,545970.1000000089,546015.137,547065.095,
フィードバック(0.5秒),canvas.Screen,21_2_4,2023-01-06T04:22:33.803Z,,,d,,,90,533.3120000000345,timeout,2R.jpg,,,547549.200000003,547548.409,547048.429,547053.299999997,547065.095,547598.407,
トライアル,flow.Sequence,21_2,2023-01-06T04:22:33.803Z,,,d,,,90,3550.1230000000214,completion,2R.jpg,,,547549.299999997,547548.409,543981.62,543984.299999997,543998.286,547598.407,
空白時間1 (0.5秒),canvas.Screen,21_3_0,2023-01-06T04:22:34.338Z,,,d,,,225,499.9799999999814,timeout,2R.jpg,,,548083.799999997,548081.721,547548.409,547549.400000006,547598.407,548098.387,
注視(1秒),canvas.Screen,21_3_1,2023-01-06T04:22:35.339Z,,,d,,,225,1033.2920000000158,timeout,2R.jpg,,,549084.6000000089,549081.681,548081.721,548084.1000000089,548098.387,549131.679,
空白時間2 (0.5秒),canvas.Screen,21_3_2,2023-01-06T04:22:35.871Z,,,d,,,225,499.9799999999814,timeout,2R.jpg,,,549616.400000006,549614.993,549081.681,549084.799999997,549131.679,549631.659,
