sender,sender_type,sender_id,timestamp,meta,,answer,correct,correctResponse,deg,duration,ended_on,image,response,response_action,time_commit,time_end,time_render,time_run,time_show,time_switch,url
イントロ1,html.Page,0,2023-01-16T05:31:57.358Z,"{""labjs_version"":""20.2.4"",""labjs_build"":{""flavor"":""development"",""commit"":""f5b4a49f956347addd546a832a3327688c2c0fef""},""location"":""https://labjs.felixhenninger.com/api/labjs_preview/index.html"",""userAgent"":""Mozilla/5.0 (Macintosh; Intel Mac OS X 10_15_7) AppleWebKit/537.36 (KHTML, like Gecko) Chrome/109.0.0.0 Safari/537.36"",""platform"":""MacIntel"",""language"":""ja"",""locale"":""ja"",""timeZone"":""Asia/Tokyo"",""timezoneOffset"":-540,""screen_width"":1440,""screen_height"":900,""scroll_width"":1440,""scroll_height"":770,""window_innerWidth"":1440,""window_innerHeight"":818,""devicePixelRatio"":2}",,,,,,83842,form submission,,,,85152,85152,1027,1622,1310,84866,{}
イントロ2,html.Page,1,2023-01-16T05:32:00.155Z,,,,,,,3084,form submission,,,,87950,87950,84833,85153,84866,87666,
イントロ3,html.Page,2,2023-01-16T05:32:02.722Z,,,,,,,2850,form submission,,,,90516,90516,87633,87950,87666,90233,
イントロ4,html.Page,3,2023-01-16T05:32:03.522Z,,,,,,,1083,form submission,,,,91316,91316,90199,90516,90233,91033,
イントロ5,html.Page,4,2023-01-16T05:32:03.857Z,,,,,,,618,form submission,,,,91651,91651,90999,91316,91033,91366,
できるだけ早く正確に,canvas.Screen,5,2023-01-16T05:32:04.619Z,,,,,,,733,timeout,,,,92413,92413,91333,91651,91366,92099,
空白時間1 (0.5秒),canvas.Screen,6_0_0,2023-01-16T05:32:04.842Z,,,d,,,135,200,timeout,eR.jpg,,,92636,92636,92413,92413,92099,92299,
注視(1秒),canvas.Screen,6_0_1,2023-01-16T05:32:05.552Z,,,d,,,135,700,timeout,eR.jpg,,,93346,93346,92636,92636,92299,92999,
空白時間2 (0.5秒),canvas.Screen,6_0_2,2023-01-16T05:32:05.776Z,,,d,,,135,234,timeout,eR.jpg,,,93570,93569,93346,93346,92999,93233,
刺激提示(練習),canvas.Screen,6_0_3,2023-01-16T05:32:06.682Z,,,d,true,d,135,1239,response,eR.jpg,d,keypress(j),94476,94472,93569,93570,93233,94199,
フィードバック(0.5秒),canvas.Screen,6_0_4,2023-01-16T05:32:06.945Z,,,d,,,135,234,timeout,eR.jpg,,,94739,94739,94166,94477,94199,94433,
トライアル,flow.Sequence,6_0,2023-01-16T05:32:06.946Z,,,d,,,135,2640,completion,eR.jpg,,,94740,94739,92413,92413,92099,94433,
空白時間1 (0.5秒),canvas.Screen,6_1_0,2023-01-16T05:32:07.179Z,,,b,,,180,200,timeout,e.jpg,,,94973,94973,94739,94741,94433,94633,
注視(1秒),canvas.Screen,6_1_1,2023-01-16T05:32:07.889Z,,,b,,,180,733,timeout,e.jpg,,,95683,95683,94973,94974,94633,95366,
空白時間2 (0.5秒),canvas.Screen,6_1_2,2023-01-16T05:32:08.113Z,,,b,,,180,200,timeout,e.jpg,,,95907,95907,95683,95683,95366,95566,
刺激提示(練習),canvas.Screen,6_1_3,2023-01-16T05:32:08.848Z,,,b,false,b,180,1072,response,e.jpg,d,keypress(j),96642,96638,95907,95907,95566,96333,
フィードバック(0.5秒),canvas.Screen,6_1_4,2023-01-16T05:32:09.073Z,,,b,,,180,200,timeout,e.jpg,,,96867,96867,96299,96644,96333,96533,
トライアル,flow.Sequence,6_1,2023-01-16T05:32:09.073Z,,,b,,,180,2434,completion,e.jpg,,,96867,96867,94739,94741,94433,96533,
空白時間1 (0.5秒),canvas.Screen,6_2_0,2023-01-16T05:32:09.306Z,,,d,,,315,233,timeout,eR.jpg,,,97100,97100,96867,96867,96533,96766,
注視(1秒),canvas.Screen,6_2_1,2023-01-16T05:32:10.028Z,,,d,,,315,733,timeout,eR.jpg,,,97822,97822,97100,97100,96766,97499,
空白時間2 (0.5秒),canvas.Screen,6_2_2,2023-01-16T05:32:10.251Z,,,d,,,315,200,timeout,eR.jpg,,,98045,98045,97822,97822,97499,97699,
刺激提示(練習),canvas.Screen,6_2_3,2023-01-16T05:32:10.870Z,,,d,true,d,315,962,response,eR.jpg,d,keypress(j),98665,98661,98045,98046,97699,98366,
フィードバック(0.5秒),canvas.Screen,6_2_4,2023-01-16T05:32:11.113Z,,,d,,,315,200,timeout,eR.jpg,,,98907,98907,98333,98665,98366,98566,
トライアル,flow.Sequence,6_2,2023-01-16T05:32:11.113Z,,,d,,,315,2374,completion,eR.jpg,,,98907,98907,96867,96867,96533,98566,
空白時間1 (0.5秒),canvas.Screen,6_3_0,2023-01-16T05:32:11.336Z,,,b,,,270,233,timeout,e.jpg,,,99131,99130,98907,98907,98566,98799,
注視(1秒),canvas.Screen,6_3_1,2023-01-16T05:32:12.056Z,,,b,,,270,734,timeout,e.jpg,,,99850,99850,99130,99131,98799,99533,
空白時間2 (0.5秒),canvas.Screen,6_3_2,2023-01-16T05:32:12.281Z,,,b,,,270,233,timeout,e.jpg,,,100076,100075,99850,99850,99533,99766,
刺激提示(練習),canvas.Screen,6_3_3,2023-01-16T05:32:12.962Z,,,b,true,b,270,987,response,e.jpg,b,keypress(f),100757,100753,100075,100076,99766,100466,
フィードバック(0.5秒),canvas.Screen,6_3_4,2023-01-16T05:32:13.210Z,,,b,,,270,200,timeout,e.jpg,,,101004,101004,100433,100758,100466,100666,
トライアル,flow.Sequence,6_3,2023-01-16T05:32:13.210Z,,,b,,,270,2438,completion,e.jpg,,,101004,101004,98907,98907,98566,100666,
練習試行(e),flow.Loop,6,2023-01-16T05:32:13.210Z,,,,,,,8905,completion,,,,101004,101004,92413,92413,92099,100666,
イントロ6,html.Page,7,2023-01-16T05:32:14.954Z,,,,,,,2082,form submission,,,,102748,102748,101004,101005,100666,102466,
できるだけ早く正確に,canvas.Screen,8,2023-01-16T05:32:15.712Z,,,,,,,733,timeout,,,,103506,103506,102433,102748,102466,103199,
空白時間1 (0.5秒),canvas.Screen,9_0_0,2023-01-16T05:32:15.947Z,,,d,,,180,200,timeout,eR.jpg,,,103741,103741,103506,103506,103199,103399,
注視(1秒),canvas.Screen,9_0_1,2023-01-16T05:32:16.659Z,,,d,,,180,734,timeout,eR.jpg,,,104454,104454,103741,103741,103399,104133,
空白時間2 (0.5秒),canvas.Screen,9_0_2,2023-01-16T05:32:16.881Z,,,d,,,180,233,timeout,eR.jpg,,,104675,104675,104454,104454,104133,104366,
刺激提示,canvas.Screen,9_0_3,2023-01-16T05:32:17.809Z,,,d,true,d,180,1233,response,eR.jpg,d,keypress(j),105603,105599,104675,104675,104366,105299,
フィードバック(0.5秒),canvas.Screen,9_0_4,2023-01-16T05:32:18.039Z,,,d,,,180,200,timeout,eR.jpg,,,105833,105833,105266,105604,105299,105499,
トライアル,flow.Sequence,9_0,2023-01-16T05:32:18.039Z,,,d,,,180,2634,completion,eR.jpg,,,105833,105833,103506,103506,103199,105499,
空白時間1 (0.5秒),canvas.Screen,9_1_0,2023-01-16T05:32:18.266Z,,,b,,,225,234,timeout,e.jpg,,,106060,106060,105833,105833,105499,105733,
注視(1秒),canvas.Screen,9_1_1,2023-01-16T05:32:18.986Z,,,b,,,225,733,timeout,e.jpg,,,106780,106780,106060,106061,105733,106466,
空白時間2 (0.5秒),canvas.Screen,9_1_2,2023-01-16T05:32:19.209Z,,,b,,,225,200,timeout,e.jpg,,,107003,107003,106780,106780,106466,106666,
刺激提示,canvas.Screen,9_1_3,2023-01-16T05:32:19.994Z,,,b,true,b,225,1119,response,e.jpg,b,keypress(f),107789,107785,107003,107003,106666,107499,
フィードバック(0.5秒),canvas.Screen,9_1_4,2023-01-16T05:32:20.242Z,,,b,,,225,200,timeout,e.jpg,,,108035,108035,107466,107790,107499,107699,
トライアル,flow.Sequence,9_1,2023-01-16T05:32:20.242Z,,,b,,,225,2536,completion,e.jpg,,,108037,108035,105833,105833,105499,107699,
空白時間1 (0.5秒),canvas.Screen,9_2_0,2023-01-16T05:32:20.466Z,,,d,,,225,234,timeout,eR.jpg,,,108260,108260,108035,108037,107699,107933,
注視(1秒),canvas.Screen,9_2_1,2023-01-16T05:32:21.193Z,,,d,,,225,733,timeout,eR.jpg,,,108988,108988,108260,108261,107933,108666,
空白時間2 (0.5秒),canvas.Screen,9_2_2,2023-01-16T05:32:21.417Z,,,d,,,225,200,timeout,eR.jpg,,,109211,109211,108988,108988,108666,108866,
刺激提示,canvas.Screen,9_2_3,2023-01-16T05:32:22.184Z,,,d,true,d,225,1109,response,eR.jpg,d,keypress(j),109979,109975,109211,109211,108866,109699,
フィードバック(0.5秒),canvas.Screen,9_2_4,2023-01-16T05:32:22.441Z,,,d,,,225,200,timeout,eR.jpg,,,110235,110235,109666,109980,109699,109899,
トライアル,flow.Sequence,9_2,2023-01-16T05:32:22.441Z,,,d,,,225,2536,completion,eR.jpg,,,110235,110235,108035,108037,107699,109899,
空白時間1 (0.5秒),canvas.Screen,9_3_0,2023-01-16T05:32:22.667Z,,,d,,,135,234,timeout,eR.jpg,,,110461,110461,110235,110235,109899,110133,
注視(1秒),canvas.Screen,9_3_1,2023-01-16T05:32:23.393Z,,,d,,,135,733,timeout,eR.jpg,,,111187,111187,110461,110461,110133,110866,
空白時間2 (0.5秒),canvas.Screen,9_3_2,2023-01-16T05:32:23.620Z,,,d,,,135,233,timeout,eR.jpg,,,111415,111415,111187,111187,110866,111099,
刺激提示,canvas.Screen,9_3_3,2023-01-16T05:32:24.308Z,,,d,true,d,135,998,response,eR.jpg,d,keypress(j),112102,112097,111415,111415,111099,111799,
フィードバック(0.5秒),canvas.Screen,9_3_4,2023-01-16T05:32:24.547Z,,,d,,,135,200,timeout,eR.jpg,,,112341,112341,111766,112103,111799,111999,
トライアル,flow.Sequence,9_3,2023-01-16T05:32:24.548Z,,,d,,,135,2442,completion,eR.jpg,,,112342,112341,110235,110235,109899,111999,
空白時間1 (0.5秒),canvas.Screen,9_4_0,2023-01-16T05:32:24.769Z,,,d,,,0,234,timeout,eR.jpg,,,112563,112563,112341,112342,111999,112233,
注視(1秒),canvas.Screen,9_4_1,2023-01-16T05:32:25.487Z,,,d,,,0,733,timeout,eR.jpg,,,113282,113281,112563,112563,112233,112966,
空白時間2 (0.5秒),canvas.Screen,9_4_2,2023-01-16T05:32:25.715Z,,,d,,,0,233,timeout,eR.jpg,,,113510,113509,113281,113282,112966,113199,
刺激提示,canvas.Screen,9_4_3,2023-01-16T05:32:26.339Z,,,d,true,d,0,931,response,eR.jpg,d,keypress(j),114133,114130,113509,113510,113199,113866,
フィードバック(0.5秒),canvas.Screen,9_4_4,2023-01-16T05:32:26.609Z,,,d,,,0,233,timeout,eR.jpg,,,114403,114403,113833,114135,113866,114099,
トライアル,flow.Sequence,9_4,2023-01-16T05:32:26.609Z,,,d,,,0,2404,completion,eR.jpg,,,114404,114403,112341,112342,111999,114099,
空白時間1 (0.5秒),canvas.Screen,9_5_0,2023-01-16T05:32:26.841Z,,,b,,,180,234,timeout,e.jpg,,,114635,114635,114403,114404,114099,114333,
注視(1秒),canvas.Screen,9_5_1,2023-01-16T05:32:27.586Z,,,b,,,180,733,timeout,e.jpg,,,115380,115380,114635,114636,114333,115066,
空白時間2 (0.5秒),canvas.Screen,9_5_2,2023-01-16T05:32:27.810Z,,,b,,,180,233,timeout,e.jpg,,,115605,115604,115380,115381,115066,115299,
刺激提示,canvas.Screen,9_5_3,2023-01-16T05:32:28.531Z,,,b,false,b,180,1023,response,e.jpg,d,keypress(j),116325,116322,115604,115605,115299,116033,
フィードバック(0.5秒),canvas.Screen,9_5_4,2023-01-16T05:32:28.776Z,,,b,,,180,200,timeout,e.jpg,,,116570,116570,115999,116326,116033,116233,
トライアル,flow.Sequence,9_5,2023-01-16T05:32:28.776Z,,,b,,,180,2471,completion,e.jpg,,,116571,116570,114403,114404,114099,116233,
空白時間1 (0.5秒),canvas.Screen,9_6_0,2023-01-16T05:32:29.003Z,,,d,,,90,233,timeout,eR.jpg,,,116797,116797,116570,116571,116233,116466,
注視(1秒),canvas.Screen,9_6_1,2023-01-16T05:32:29.714Z,,,d,,,90,700,timeout,eR.jpg,,,117508,117508,116797,116797,116466,117166,
空白時間2 (0.5秒),canvas.Screen,9_6_2,2023-01-16T05:32:29.947Z,,,d,,,90,267,timeout,eR.jpg,,,117741,117741,117508,117508,117166,117433,
刺激提示,canvas.Screen,9_6_3,2023-01-16T05:32:30.592Z,,,d,true,d,90,950,response,eR.jpg,d,keypress(j),118386,118383,117741,117742,117433,118099,
フィードバック(0.5秒),canvas.Screen,9_6_4,2023-01-16T05:32:30.841Z,,,d,,,90,200,timeout,eR.jpg,,,118635,118635,118066,118387,118099,118299,
トライアル,flow.Sequence,9_6,2023-01-16T05:32:30.841Z,,,d,,,90,2402,completion,eR.jpg,,,118635,118635,116570,116571,116233,118299,
空白時間1 (0.5秒),canvas.Screen,9_7_0,2023-01-16T05:32:31.076Z,,,d,,,270,234,timeout,eR.jpg,,,118870,118870,118635,118635,118299,118533,
注視(1秒),canvas.Screen,9_7_1,2023-01-16T05:32:31.778Z,,,d,,,270,700,timeout,eR.jpg,,,119572,119572,118870,118870,118533,119233,
空白時間2 (0.5秒),canvas.Screen,9_7_2,2023-01-16T05:32:32.010Z,,,d,,,270,233,timeout,eR.jpg,,,119804,119804,119572,119572,119233,119466,
刺激提示,canvas.Screen,9_7_3,2023-01-16T05:32:32.719Z,,,d,true,d,270,1043,response,eR.jpg,d,keypress(j),120513,120509,119804,119805,119466,120233,
フィードバック(0.5秒),canvas.Screen,9_7_4,2023-01-16T05:32:32.979Z,,,d,,,270,233,timeout,eR.jpg,,,120773,120773,120199,120515,120233,120466,
トライアル,flow.Sequence,9_7,2023-01-16T05:32:32.979Z,,,d,,,270,2474,completion,eR.jpg,,,120773,120773,118635,118635,118299,120466,
空白時間1 (0.5秒),canvas.Screen,9_8_0,2023-01-16T05:32:33.208Z,,,b,,,90,200,timeout,e.jpg,,,121002,121002,120773,120773,120466,120666,
注視(1秒),canvas.Screen,9_8_1,2023-01-16T05:32:33.921Z,,,b,,,90,733,timeout,e.jpg,,,121715,121715,121002,121003,120666,121399,
空白時間2 (0.5秒),canvas.Screen,9_8_2,2023-01-16T05:32:34.144Z,,,b,,,90,200,timeout,e.jpg,,,121939,121939,121715,121716,121399,121599,
刺激提示,canvas.Screen,9_8_3,2023-01-16T05:32:34.948Z,,,b,true,b,90,1139,response,e.jpg,b,keypress(f),122743,122738,121939,121939,121599,122466,
フィードバック(0.5秒),canvas.Screen,9_8_4,2023-01-16T05:32:35.210Z,,,b,,,90,233,timeout,e.jpg,,,123005,123004,122433,122753,122466,122699,
トライアル,flow.Sequence,9_8,2023-01-16T05:32:35.210Z,,,b,,,90,2538,completion,e.jpg,,,123005,123004,120773,120773,120466,122699,
空白時間1 (0.5秒),canvas.Screen,9_9_0,2023-01-16T05:32:35.441Z,,,b,,,315,200,timeout,e.jpg,,,123235,123235,123004,123005,122699,122899,
注視(1秒),canvas.Screen,9_9_1,2023-01-16T05:32:36.148Z,,,b,,,315,734,timeout,e.jpg,,,123942,123942,123235,123235,122899,123633,
空白時間2 (0.5秒),canvas.Screen,9_9_2,2023-01-16T05:32:36.376Z,,,b,,,315,200,timeout,e.jpg,,,124170,124170,123942,123942,123633,123833,
刺激提示,canvas.Screen,9_9_3,2023-01-16T05:32:37.011Z,,,b,true,b,315,968,response,e.jpg,b,keypress(f),124805,124801,124170,124171,123833,124533,
フィードバック(0.5秒),canvas.Screen,9_9_4,2023-01-16T05:32:37.273Z,,,b,,,315,200,timeout,e.jpg,,,125068,125067,124499,124806,124533,124733,
トライアル,flow.Sequence,9_9,2023-01-16T05:32:37.273Z,,,b,,,315,2368,completion,e.jpg,,,125068,125067,123004,123005,122699,124733,
空白時間1 (0.5秒),canvas.Screen,9_10_0,2023-01-16T05:32:37.497Z,,,d,,,315,233,timeout,eR.jpg,,,125291,125291,125067,125068,124733,124966,
注視(1秒),canvas.Screen,9_10_1,2023-01-16T05:32:38.227Z,,,d,,,315,733,timeout,eR.jpg,,,126021,126020,125291,125291,124966,125699,
空白時間2 (0.5秒),canvas.Screen,9_10_2,2023-01-16T05:32:38.448Z,,,d,,,315,200,timeout,eR.jpg,,,126242,126242,126020,126021,125699,125899,
刺激提示,canvas.Screen,9_10_3,2023-01-16T05:32:38.981Z,,,d,true,d,315,874,response,eR.jpg,d,keypress(j),126775,126773,126242,126242,125899,126466,
フィードバック(0.5秒),canvas.Screen,9_10_4,2023-01-16T05:32:39.210Z,,,d,,,315,233,timeout,eR.jpg,,,127004,127004,126433,126776,126466,126699,
トライアル,flow.Sequence,9_10,2023-01-16T05:32:39.210Z,,,d,,,315,2271,completion,eR.jpg,,,127004,127004,125067,125068,124733,126699,
空白時間1 (0.5秒),canvas.Screen,9_11_0,2023-01-16T05:32:39.441Z,,,d,,,45,200,timeout,eR.jpg,,,127235,127235,127004,127005,126699,126899,
注視(1秒),canvas.Screen,9_11_1,2023-01-16T05:32:40.152Z,,,d,,,45,700,timeout,eR.jpg,,,127946,127946,127235,127235,126899,127599,
空白時間2 (0.5秒),canvas.Screen,9_11_2,2023-01-16T05:32:40.379Z,,,d,,,45,234,timeout,eR.jpg,,,128174,128173,127946,127946,127599,127833,
刺激提示,canvas.Screen,9_11_3,2023-01-16T05:32:40.969Z,,,d,true,d,45,927,response,eR.jpg,d,keypress(j),128764,128760,128173,128174,127833,128466,
フィードバック(0.5秒),canvas.Screen,9_11_4,2023-01-16T05:32:41.209Z,,,d,,,45,200,timeout,eR.jpg,,,129003,129003,128433,128764,128466,128666,
トライアル,flow.Sequence,9_11,2023-01-16T05:32:41.209Z,,,d,,,45,2304,completion,eR.jpg,,,129003,129003,127004,127004,126699,128666,
空白時間1 (0.5秒),canvas.Screen,9_12_0,2023-01-16T05:32:41.434Z,,,b,,,135,233,timeout,e.jpg,,,129228,129228,129003,129004,128666,128899,
注視(1秒),canvas.Screen,9_12_1,2023-01-16T05:32:42.161Z,,,b,,,135,734,timeout,e.jpg,,,129956,129956,129228,129229,128899,129633,
空白時間2 (0.5秒),canvas.Screen,9_12_2,2023-01-16T05:32:42.386Z,,,b,,,135,233,timeout,e.jpg,,,130181,130181,129956,129956,129633,129866,
刺激提示,canvas.Screen,9_12_3,2023-01-16T05:32:43.082Z,,,b,true,b,135,1006,response,e.jpg,b,keypress(f),130876,130872,130181,130181,129866,130566,
フィードバック(0.5秒),canvas.Screen,9_12_4,2023-01-16T05:32:43.313Z,,,b,,,135,200,timeout,e.jpg,,,131106,131106,130533,130877,130566,130766,
トライアル,flow.Sequence,9_12,2023-01-16T05:32:43.313Z,,,b,,,135,2440,completion,e.jpg,,,131107,131106,129003,129004,128666,130766,
空白時間1 (0.5秒),canvas.Screen,9_13_0,2023-01-16T05:32:43.535Z,,,b,,,45,233,timeout,e.jpg,,,131329,131329,131106,131107,130766,130999,
注視(1秒),canvas.Screen,9_13_1,2023-01-16T05:32:44.257Z,,,b,,,45,767,timeout,e.jpg,,,132052,132052,131329,131329,130999,131766,
空白時間2 (0.5秒),canvas.Screen,9_13_2,2023-01-16T05:32:44.513Z,,,b,,,45,233,timeout,e.jpg,,,132307,132307,132052,132052,131766,131999,
刺激提示,canvas.Screen,9_13_3,2023-01-16T05:32:45.146Z,,,b,true,b,45,936,response,e.jpg,b,keypress(f),132940,132935,132307,132307,131999,132666,
フィードバック(0.5秒),canvas.Screen,9_13_4,2023-01-16T05:32:45.410Z,,,b,,,45,233,timeout,e.jpg,,,133203,133203,132633,132941,132666,132899,
トライアル,flow.Sequence,9_13,2023-01-16T05:32:45.410Z,,,b,,,45,2437,completion,e.jpg,,,133204,133203,131106,131107,130766,132899,
空白時間1 (0.5秒),canvas.Screen,9_14_0,2023-01-16T05:32:45.649Z,,,b,,,0,234,timeout,e.jpg,,,133443,133443,133203,133204,132899,133133,
注視(1秒),canvas.Screen,9_14_1,2023-01-16T05:32:46.394Z,,,b,,,0,733,timeout,e.jpg,,,134189,134189,133443,133443,133133,133866,
空白時間2 (0.5秒),canvas.Screen,9_14_2,2023-01-16T05:32:46.616Z,,,b,,,0,233,timeout,e.jpg,,,134410,134410,134189,134189,133866,134099,
刺激提示,canvas.Screen,9_14_3,2023-01-16T05:32:47.248Z,,,b,true,b,0,939,response,e.jpg,b,keypress(f),135042,135038,134410,134410,134099,134733,
フィードバック(0.5秒),canvas.Screen,9_14_4,2023-01-16T05:32:47.497Z,,,b,,,0,233,timeout,e.jpg,,,135291,135291,134699,135043,134733,134966,
トライアル,flow.Sequence,9_14,2023-01-16T05:32:47.497Z,,,b,,,0,2392,completion,e.jpg,,,135291,135291,133203,133204,132899,134966,
空白時間1 (0.5秒),canvas.Screen,9_15_0,2023-01-16T05:32:47.721Z,,,b,,,270,233,timeout,e.jpg,,,135515,135515,135291,135291,134966,135199,
注視(1秒),canvas.Screen,9_15_1,2023-01-16T05:32:48.456Z,,,b,,,270,734,timeout,e.jpg,,,136250,136250,135515,135515,135199,135933,
空白時間2 (0.5秒),canvas.Screen,9_15_2,2023-01-16T05:32:48.681Z,,,b,,,270,200,timeout,e.jpg,,,136475,136475,136250,136250,135933,136133,
刺激提示,canvas.Screen,9_15_3,2023-01-16T05:32:49.409Z,,,b,true,b,270,1067,response,e.jpg,b,keypress(f),137204,137200,136475,136476,136133,136933,
フィードバック(0.5秒),canvas.Screen,9_15_4,2023-01-16T05:32:49.682Z,,,b,,,270,200,timeout,e.jpg,,,137476,137476,136899,137205,136933,137133,
トライアル,flow.Sequence,9_15,2023-01-16T05:32:49.682Z,,,b,,,270,2510,completion,e.jpg,,,137476,137476,135291,135291,134966,137133,
タスクのセット,flow.Loop,9,2023-01-16T05:32:49.682Z,,,,,,,34277,completion,,,,137476,137476,103506,103506,103199,137133,
空白時間1 (0.5秒),canvas.Screen,10_0_0,2023-01-16T05:32:49.906Z,,,d,,,315,233,timeout,eR.jpg,,,137701,137701,137476,137476,137133,137366,
注視(1秒),canvas.Screen,10_0_1,2023-01-16T05:32:50.625Z,,,d,,,315,733,timeout,eR.jpg,,,138419,138419,137701,137701,137366,138099,
空白時間2 (0.5秒),canvas.Screen,10_0_2,2023-01-16T05:32:50.850Z,,,d,,,315,200,timeout,eR.jpg,,,138644,138644,138419,138419,138099,138299,
刺激提示,canvas.Screen,10_0_3,2023-01-16T05:32:51.396Z,,,d,true,d,315,889,response,eR.jpg,d,keypress(j),139191,139188,138644,138644,138299,138899,
フィードバック(0.5秒),canvas.Screen,10_0_4,2023-01-16T05:32:51.641Z,,,d,,,315,200,timeout,eR.jpg,,,139435,139435,138866,139192,138899,139099,
トライアル,flow.Sequence,10_0,2023-01-16T05:32:51.641Z,,,d,,,315,2302,completion,eR.jpg,,,139436,139435,137476,137476,137133,139099,
空白時間1 (0.5秒),canvas.Screen,10_1_0,2023-01-16T05:32:51.866Z,,,d,,,0,234,timeout,eR.jpg,,,139660,139660,139435,139436,139099,139333,
注視(1秒),canvas.Screen,10_1_1,2023-01-16T05:32:52.595Z,,,d,,,0,733,timeout,eR.jpg,,,140390,140389,139660,139661,139333,140066,
空白時間2 (0.5秒),canvas.Screen,10_1_2,2023-01-16T05:32:52.818Z,,,d,,,0,200,timeout,eR.jpg,,,140613,140612,140389,140390,140066,140266,
刺激提示,canvas.Screen,10_1_3,2023-01-16T05:32:53.392Z,,,d,true,d,0,918,response,eR.jpg,d,keypress(j),141186,141184,140612,140613,140266,140933,
フィードバック(0.5秒),canvas.Screen,10_1_4,2023-01-16T05:32:53.679Z,,,d,,,0,233,timeout,eR.jpg,,,141474,141474,140899,141188,140933,141166,
トライアル,flow.Sequence,10_1,2023-01-16T05:32:53.680Z,,,d,,,0,2375,completion,eR.jpg,,,141474,141474,139435,139436,139099,141166,
空白時間1 (0.5秒),canvas.Screen,10_2_0,2023-01-16T05:32:53.914Z,,,b,,,315,200,timeout,e.jpg,,,141708,141708,141474,141474,141166,141366,
注視(1秒),canvas.Screen,10_2_1,2023-01-16T05:32:54.626Z,,,b,,,315,733,timeout,e.jpg,,,142420,142420,141708,141708,141366,142099,
空白時間2 (0.5秒),canvas.Screen,10_2_2,2023-01-16T05:32:54.857Z,,,b,,,315,234,timeout,e.jpg,,,142651,142651,142420,142420,142099,142333,
刺激提示,canvas.Screen,10_2_3,2023-01-16T05:32:55.446Z,,,b,true,b,315,901,response,e.jpg,b,keypress(f),143239,143234,142651,142651,142333,142966,
フィードバック(0.5秒),canvas.Screen,10_2_4,2023-01-16T05:32:55.714Z,,,b,,,315,200,timeout,e.jpg,,,143508,143508,142933,143241,142966,143166,
トライアル,flow.Sequence,10_2,2023-01-16T05:32:55.714Z,,,b,,,315,2342,completion,e.jpg,,,143508,143508,141474,141474,141166,143166,
空白時間1 (0.5秒),canvas.Screen,10_3_0,2023-01-16T05:32:55.937Z,,,b,,,45,233,timeout,e.jpg,,,143731,143731,143508,143508,143166,143399,
注視(1秒),canvas.Screen,10_3_1,2023-01-16T05:32:56.655Z,,,b,,,45,734,timeout,e.jpg,,,144449,144449,143731,143732,143399,144133,
空白時間2 (0.5秒),canvas.Screen,10_3_2,2023-01-16T05:32:56.884Z,,,b,,,45,200,timeout,e.jpg,,,144678,144678,144449,144450,144133,144333,
刺激提示,canvas.Screen,10_3_3,2023-01-16T05:32:57.469Z,,,b,true,b,45,926,response,e.jpg,b,keypress(f),145263,145259,144678,144679,144333,144966,
フィードバック(0.5秒),canvas.Screen,10_3_4,2023-01-16T05:32:57.714Z,,,b,,,45,200,timeout,e.jpg,,,145508,145508,144933,145265,144966,145166,
トライアル,flow.Sequence,10_3,2023-01-16T05:32:57.714Z,,,b,,,45,2342,completion,e.jpg,,,145509,145508,143508,143508,143166,145166,
空白時間1 (0.5秒),canvas.Screen,10_4_0,2023-01-16T05:32:57.930Z,,,b,,,0,233,timeout,e.jpg,,,145725,145725,145508,145509,145166,145399,
注視(1秒),canvas.Screen,10_4_1,2023-01-16T05:32:58.657Z,,,b,,,0,734,timeout,e.jpg,,,146451,146451,145725,145725,145399,146133,
空白時間2 (0.5秒),canvas.Screen,10_4_2,2023-01-16T05:32:58.882Z,,,b,,,0,200,timeout,e.jpg,,,146676,146676,146451,146451,146133,146333,
刺激提示,canvas.Screen,10_4_3,2023-01-16T05:32:59.411Z,,,b,true,b,0,869,response,e.jpg,b,keypress(f),147205,147202,146676,146676,146333,146933,
フィードバック(0.5秒),canvas.Screen,10_4_4,2023-01-16T05:32:59.681Z,,,b,,,0,200,timeout,e.jpg,,,147475,147474,146899,147206,146933,147133,
トライアル,flow.Sequence,10_4,2023-01-16T05:32:59.681Z,,,b,,,0,2308,completion,e.jpg,,,147475,147474,145508,145509,145166,147133,
空白時間1 (0.5秒),canvas.Screen,10_5_0,2023-01-16T05:32:59.906Z,,,d,,,180,233,timeout,eR.jpg,,,147701,147700,147474,147476,147133,147366,
注視(1秒),canvas.Screen,10_5_1,2023-01-16T05:33:00.626Z,,,d,,,180,733,timeout,eR.jpg,,,148421,148421,147700,147701,147366,148099,
空白時間2 (0.5秒),canvas.Screen,10_5_2,2023-01-16T05:33:00.850Z,,,d,,,180,200,timeout,eR.jpg,,,148645,148644,148421,148421,148099,148299,
刺激提示,canvas.Screen,10_5_3,2023-01-16T05:33:01.795Z,,,d,true,d,180,1287,response,eR.jpg,d,keypress(j),149589,149586,148644,148645,148299,149299,
フィードバック(0.5秒),canvas.Screen,10_5_4,2023-01-16T05:33:02.043Z,,,d,,,180,234,timeout,eR.jpg,,,149837,149837,149266,149590,149299,149533,
トライアル,flow.Sequence,10_5,2023-01-16T05:33:02.043Z,,,d,,,180,2704,completion,eR.jpg,,,149838,149837,147474,147475,147133,149533,
空白時間1 (0.5秒),canvas.Screen,10_6_0,2023-01-16T05:33:02.272Z,,,d,,,225,200,timeout,eR.jpg,,,150067,150067,149837,149838,149533,149733,
注視(1秒),canvas.Screen,10_6_1,2023-01-16T05:33:02.988Z,,,d,,,225,733,timeout,eR.jpg,,,150782,150782,150067,150067,149733,150466,
空白時間2 (0.5秒),canvas.Screen,10_6_2,2023-01-16T05:33:03.210Z,,,d,,,225,200,timeout,eR.jpg,,,151004,151004,150782,150783,150466,150666,
刺激提示,canvas.Screen,10_6_3,2023-01-16T05:33:04.075Z,,,d,true,d,225,1200,response,eR.jpg,d,keypress(j),151870,151866,151004,151004,150666,151599,
フィードバック(0.5秒),canvas.Screen,10_6_4,2023-01-16T05:33:04.345Z,,,d,,,225,200,timeout,eR.jpg,,,152140,152140,151566,151870,151599,151799,
トライアル,flow.Sequence,10_6,2023-01-16T05:33:04.346Z,,,d,,,225,2607,completion,eR.jpg,,,152140,152140,149837,149838,149533,151799,
空白時間1 (0.5秒),canvas.Screen,10_7_0,2023-01-16T05:33:04.568Z,,,b,,,225,267,timeout,e.jpg,,,152362,152361,152140,152140,151799,152066,
注視(1秒),canvas.Screen,10_7_1,2023-01-16T05:33:05.321Z,,,b,,,225,733,timeout,e.jpg,,,153116,153116,152361,152362,152066,152799,
空白時間2 (0.5秒),canvas.Screen,10_7_2,2023-01-16T05:33:05.546Z,,,b,,,225,234,timeout,e.jpg,,,153340,153340,153116,153116,152799,153033,
刺激提示,canvas.Screen,10_7_3,2023-01-16T05:33:06.410Z,,,b,true,b,225,1168,response,e.jpg,b,keypress(f),154205,154201,153340,153340,153033,153899,
フィードバック(0.5秒),canvas.Screen,10_7_4,2023-01-16T05:33:06.641Z,,,b,,,225,200,timeout,e.jpg,,,154435,154435,153866,154205,153899,154099,
トライアル,flow.Sequence,10_7,2023-01-16T05:33:06.641Z,,,b,,,225,2636,completion,e.jpg,,,154435,154435,152140,152140,151799,154099,
空白時間1 (0.5秒),canvas.Screen,10_8_0,2023-01-16T05:33:06.866Z,,,b,,,135,234,timeout,e.jpg,,,154660,154660,154435,154435,154099,154333,
注視(1秒),canvas.Screen,10_8_1,2023-01-16T05:33:07.596Z,,,b,,,135,733,timeout,e.jpg,,,155390,155390,154660,154661,154333,155066,
空白時間2 (0.5秒),canvas.Screen,10_8_2,2023-01-16T05:33:07.827Z,,,b,,,135,233,timeout,e.jpg,,,155621,155621,155390,155390,155066,155299,
刺激提示,canvas.Screen,10_8_3,2023-01-16T05:33:08.614Z,,,b,true,b,135,1106,response,e.jpg,b,keypress(f),156409,156405,155621,155621,155299,156099,
フィードバック(0.5秒),canvas.Screen,10_8_4,2023-01-16T05:33:08.847Z,,,b,,,135,200,timeout,e.jpg,,,156642,156641,156066,156409,156099,156299,
トライアル,flow.Sequence,10_8,2023-01-16T05:33:08.847Z,,,b,,,135,2542,completion,e.jpg,,,156642,156641,154435,154435,154099,156299,
空白時間1 (0.5秒),canvas.Screen,10_9_0,2023-01-16T05:33:09.074Z,,,b,,,90,234,timeout,e.jpg,,,156868,156868,156641,156642,156299,156533,
注視(1秒),canvas.Screen,10_9_1,2023-01-16T05:33:09.794Z,,,b,,,90,733,timeout,e.jpg,,,157588,157588,156868,156868,156533,157266,
空白時間2 (0.5秒),canvas.Screen,10_9_2,2023-01-16T05:33:10.016Z,,,b,,,90,233,timeout,e.jpg,,,157811,157811,157588,157589,157266,157499,
刺激提示,canvas.Screen,10_9_3,2023-01-16T05:33:10.576Z,,,b,true,b,90,868,response,e.jpg,b,keypress(f),158370,158367,157811,157811,157499,158099,
フィードバック(0.5秒),canvas.Screen,10_9_4,2023-01-16T05:33:10.841Z,,,b,,,90,234,timeout,e.jpg,,,158636,158636,158066,158372,158099,158333,
トライアル,flow.Sequence,10_9,2023-01-16T05:33:10.842Z,,,b,,,90,2337,completion,e.jpg,,,158636,158636,156641,156642,156299,158333,
空白時間1 (0.5秒),canvas.Screen,10_10_0,2023-01-16T05:33:11.072Z,,,d,,,270,200,timeout,eR.jpg,,,158866,158866,158636,158636,158333,158533,
注視(1秒),canvas.Screen,10_10_1,2023-01-16T05:33:11.778Z,,,d,,,270,733,timeout,eR.jpg,,,159572,159572,158866,158867,158533,159266,
空白時間2 (0.5秒),canvas.Screen,10_10_2,2023-01-16T05:33:12.008Z,,,d,,,270,200,timeout,eR.jpg,,,159802,159802,159572,159572,159266,159466,
刺激提示,canvas.Screen,10_10_3,2023-01-16T05:33:12.608Z,,,d,true,d,270,932,response,eR.jpg,d,keypress(j),160403,160398,159802,159802,159466,160099,
フィードバック(0.5秒),canvas.Screen,10_10_4,2023-01-16T05:33:12.842Z,,,d,,,270,200,timeout,eR.jpg,,,160636,160636,160066,160403,160099,160299,
トライアル,flow.Sequence,10_10,2023-01-16T05:33:12.842Z,,,d,,,270,2303,completion,eR.jpg,,,160636,160636,158636,158636,158333,160299,
空白時間1 (0.5秒),canvas.Screen,10_11_0,2023-01-16T05:33:13.072Z,,,d,,,135,234,timeout,eR.jpg,,,160867,160867,160636,160636,160299,160533,
注視(1秒),canvas.Screen,10_11_1,2023-01-16T05:33:13.793Z,,,d,,,135,733,timeout,eR.jpg,,,161587,161587,160867,160867,160533,161266,
空白時間2 (0.5秒),canvas.Screen,10_11_2,2023-01-16T05:33:14.015Z,,,d,,,135,200,timeout,eR.jpg,,,161810,161810,161587,161587,161266,161466,
刺激提示,canvas.Screen,10_11_3,2023-01-16T05:33:14.801Z,,,d,true,d,135,1125,response,eR.jpg,d,keypress(j),162595,162591,161810,161810,161466,162299,
フィードバック(0.5秒),canvas.Screen,10_11_4,2023-01-16T05:33:15.041Z,,,d,,,135,234,timeout,eR.jpg,,,162835,162835,162266,162596,162299,162533,
トライアル,flow.Sequence,10_11,2023-01-16T05:33:15.041Z,,,d,,,135,2536,completion,eR.jpg,,,162836,162835,160636,160636,160299,162533,
空白時間1 (0.5秒),canvas.Screen,10_12_0,2023-01-16T05:33:15.283Z,,,d,,,90,200,timeout,eR.jpg,,,163077,163077,162835,162836,162533,162733,
注視(1秒),canvas.Screen,10_12_1,2023-01-16T05:33:15.994Z,,,d,,,90,733,timeout,eR.jpg,,,163789,163789,163077,163077,162733,163466,
空白時間2 (0.5秒),canvas.Screen,10_12_2,2023-01-16T05:33:16.218Z,,,d,,,90,200,timeout,eR.jpg,,,164013,164013,163789,163789,163466,163666,
刺激提示,canvas.Screen,10_12_3,2023-01-16T05:33:17.119Z,,,d,true,d,90,1244,response,eR.jpg,d,keypress(j),164913,164910,164013,164013,163666,164633,
フィードバック(0.5秒),canvas.Screen,10_12_4,2023-01-16T05:33:17.378Z,,,d,,,90,200,timeout,eR.jpg,,,165171,165171,164599,164925,164633,164833,
トライアル,flow.Sequence,10_12,2023-01-16T05:33:17.378Z,,,d,,,90,2638,completion,eR.jpg,,,165172,165171,162835,162836,162533,164833,
空白時間1 (0.5秒),canvas.Screen,10_13_0,2023-01-16T05:33:17.603Z,,,b,,,270,233,timeout,e.jpg,,,165397,165397,165171,165172,164833,165066,
注視(1秒),canvas.Screen,10_13_1,2023-01-16T05:33:18.314Z,,,b,,,270,700,timeout,e.jpg,,,166108,166108,165397,165397,165066,165766,
空白時間2 (0.5秒),canvas.Screen,10_13_2,2023-01-16T05:33:18.546Z,,,b,,,270,233,timeout,e.jpg,,,166340,166340,166108,166108,165766,165999,
刺激提示,canvas.Screen,10_13_3,2023-01-16T05:33:19.193Z,,,b,true,b,270,984,response,e.jpg,b,keypress(f),166987,166983,166340,166340,165999,166699,
フィードバック(0.5秒),canvas.Screen,10_13_4,2023-01-16T05:33:19.442Z,,,b,,,270,200,timeout,e.jpg,,,167236,167236,166666,166988,166699,166899,
トライアル,flow.Sequence,10_13,2023-01-16T05:33:19.442Z,,,b,,,270,2403,completion,e.jpg,,,167236,167236,165171,165172,164833,166899,
空白時間1 (0.5秒),canvas.Screen,10_14_0,2023-01-16T05:33:19.672Z,,,b,,,180,267,timeout,e.jpg,,,167467,167466,167236,167236,166899,167166,
注視(1秒),canvas.Screen,10_14_1,2023-01-16T05:33:20.427Z,,,b,,,180,733,timeout,e.jpg,,,168221,168221,167466,167467,167166,167899,
空白時間2 (0.5秒),canvas.Screen,10_14_2,2023-01-16T05:33:20.649Z,,,b,,,180,234,timeout,e.jpg,,,168443,168443,168221,168221,167899,168133,
刺激提示,canvas.Screen,10_14_3,2023-01-16T05:33:22.037Z,,,b,true,b,180,1694,response,e.jpg,b,keypress(f),169831,169827,168443,168443,168133,169533,
フィードバック(0.5秒),canvas.Screen,10_14_4,2023-01-16T05:33:22.273Z,,,b,,,180,200,timeout,e.jpg,,,170068,170068,169499,169833,169533,169733,
トライアル,flow.Sequence,10_14,2023-01-16T05:33:22.273Z,,,b,,,180,3169,completion,e.jpg,,,170068,170068,167236,167236,166899,169733,
空白時間1 (0.5秒),canvas.Screen,10_15_0,2023-01-16T05:33:22.497Z,,,d,,,45,233,timeout,eR.jpg,,,170291,170291,170068,170068,169733,169966,
注視(1秒),canvas.Screen,10_15_1,2023-01-16T05:33:23.220Z,,,d,,,45,733,timeout,eR.jpg,,,171014,171014,170291,170291,169966,170699,
空白時間2 (0.5秒),canvas.Screen,10_15_2,2023-01-16T05:33:23.450Z,,,d,,,45,200,timeout,eR.jpg,,,171244,171244,171014,171014,170699,170899,
刺激提示,canvas.Screen,10_15_3,2023-01-16T05:33:24.042Z,,,d,true,d,45,933,response,eR.jpg,d,keypress(j),171836,171832,171244,171244,170899,171566,
フィードバック(0.5秒),canvas.Screen,10_15_4,2023-01-16T05:33:24.315Z,,,d,,,45,200,timeout,eR.jpg,,,172109,172109,171533,171838,171566,171766,
トライアル,flow.Sequence,10_15,2023-01-16T05:33:24.315Z,,,d,,,45,2376,completion,eR.jpg,,,172109,172109,170068,170068,169733,171766,
タスクのセット,flow.Loop,10,2023-01-16T05:33:24.315Z,,,,,,,34976,completion,,,,172109,172109,137476,137476,137133,171766,
空白時間1 (0.5秒),canvas.Screen,11_0_0,2023-01-16T05:33:24.545Z,,,d,,,135,267,timeout,eR.jpg,,,172340,172339,172109,172109,171766,172033,
注視(1秒),canvas.Screen,11_0_1,2023-01-16T05:33:25.292Z,,,d,,,135,733,timeout,eR.jpg,,,173086,173086,172339,172340,172033,172766,
空白時間2 (0.5秒),canvas.Screen,11_0_2,2023-01-16T05:33:25.523Z,,,d,,,135,267,timeout,eR.jpg,,,173317,173316,173086,173086,172766,173033,
刺激提示,canvas.Screen,11_0_3,2023-01-16T05:33:26.237Z,,,d,true,d,135,994,response,eR.jpg,d,keypress(j),174032,174027,173316,173326,173033,173766,
フィードバック(0.5秒),canvas.Screen,11_0_4,2023-01-16T05:33:26.512Z,,,d,,,135,233,timeout,eR.jpg,,,174306,174306,173733,174033,173766,173999,
トライアル,flow.Sequence,11_0,2023-01-16T05:33:26.513Z,,,d,,,135,2540,completion,eR.jpg,,,174308,174306,172109,172109,171766,173999,
空白時間1 (0.5秒),canvas.Screen,11_1_0,2023-01-16T05:33:26.747Z,,,b,,,225,234,timeout,e.jpg,,,174541,174541,174306,174308,173999,174233,
注視(1秒),canvas.Screen,11_1_1,2023-01-16T05:33:27.488Z,,,b,,,225,733,timeout,e.jpg,,,175282,175282,174541,174541,174233,174966,
空白時間2 (0.5秒),canvas.Screen,11_1_2,2023-01-16T05:33:27.714Z,,,b,,,225,233,timeout,e.jpg,,,175509,175509,175282,175282,174966,175199,
刺激提示,canvas.Screen,11_1_3,2023-01-16T05:33:28.746Z,,,b,true,b,225,1337,response,e.jpg,b,keypress(f),176540,176536,175509,175509,175199,176266,
フィードバック(0.5秒),canvas.Screen,11_1_4,2023-01-16T05:33:29.008Z,,,b,,,225,233,timeout,e.jpg,,,176802,176802,176233,176541,176266,176499,
トライアル,flow.Sequence,11_1,2023-01-16T05:33:29.008Z,,,b,,,225,2803,completion,e.jpg,,,176802,176802,174306,174308,173999,176499,
空白時間1 (0.5秒),canvas.Screen,11_2_0,2023-01-16T05:33:29.248Z,,,d,,,0,234,timeout,eR.jpg,,,177042,177041,176802,176802,176499,176733,
注視(1秒),canvas.Screen,11_2_1,2023-01-16T05:33:29.986Z,,,d,,,0,733,timeout,eR.jpg,,,177780,177780,177041,177042,176733,177466,
空白時間2 (0.5秒),canvas.Screen,11_2_2,2023-01-16T05:33:30.212Z,,,d,,,0,233,timeout,eR.jpg,,,178006,178006,177780,177780,177466,177699,
刺激提示,canvas.Screen,11_2_3,2023-01-16T05:33:30.821Z,,,d,false,d,0,912,response,eR.jpg,b,keypress(f),178615,178611,178006,178006,177699,178333,
フィードバック(0.5秒),canvas.Screen,11_2_4,2023-01-16T05:33:31.073Z,,,d,,,0,200,timeout,eR.jpg,,,178867,178867,178299,178616,178333,178533,
トライアル,flow.Sequence,11_2,2023-01-16T05:33:31.073Z,,,d,,,0,2368,completion,eR.jpg,,,178867,178867,176802,176802,176499,178533,
空白時間1 (0.5秒),canvas.Screen,11_3_0,2023-01-16T05:33:31.298Z,,,d,,,45,233,timeout,eR.jpg,,,179093,179092,178867,178867,178533,178766,
注視(1秒),canvas.Screen,11_3_1,2023-01-16T05:33:32.027Z,,,d,,,45,733,timeout,eR.jpg,,,179821,179821,179092,179093,178766,179499,
空白時間2 (0.5秒),canvas.Screen,11_3_2,2023-01-16T05:33:32.250Z,,,d,,,45,200,timeout,eR.jpg,,,180044,180043,179821,179821,179499,179699,
刺激提示,canvas.Screen,11_3_3,2023-01-16T05:33:32.830Z,,,d,true,d,45,922,response,eR.jpg,d,keypress(j),180625,180621,180043,180044,179699,180333,
フィードバック(0.5秒),canvas.Screen,11_3_4,2023-01-16T05:33:33.072Z,,,d,,,45,200,timeout,eR.jpg,,,180867,180867,180299,180625,180333,180533,
トライアル,flow.Sequence,11_3,2023-01-16T05:33:33.072Z,,,d,,,45,2334,completion,eR.jpg,,,180867,180867,178867,178867,178533,180533,
空白時間1 (0.5秒),canvas.Screen,11_4_0,2023-01-16T05:33:33.300Z,,,b,,,45,233,timeout,e.jpg,,,181094,181094,180867,180867,180533,180766,
注視(1秒),canvas.Screen,11_4_1,2023-01-16T05:33:34.027Z,,,b,,,45,733,timeout,e.jpg,,,181821,181821,181094,181094,180766,181499,
空白時間2 (0.5秒),canvas.Screen,11_4_2,2023-01-16T05:33:34.251Z,,,b,,,45,200,timeout,e.jpg,,,182045,182044,181821,181821,181499,181699,
刺激提示,canvas.Screen,11_4_3,2023-01-16T05:33:35.038Z,,,b,true,b,45,1129,response,e.jpg,b,keypress(f),182832,182828,182044,182045,181699,182533,
フィードバック(0.5秒),canvas.Screen,11_4_4,2023-01-16T05:33:35.274Z,,,b,,,45,200,timeout,e.jpg,,,183068,183068,182499,182833,182533,182733,
トライアル,flow.Sequence,11_4,2023-01-16T05:33:35.274Z,,,b,,,45,2535,completion,e.jpg,,,183068,183068,180867,180867,180533,182733,
空白時間1 (0.5秒),canvas.Screen,11_5_0,2023-01-16T05:33:35.507Z,,,b,,,0,233,timeout,e.jpg,,,183302,183302,183068,183068,182733,182966,
注視(1秒),canvas.Screen,11_5_1,2023-01-16T05:33:36.227Z,,,b,,,0,733,timeout,e.jpg,,,184021,184021,183302,183302,182966,183699,
空白時間2 (0.5秒),canvas.Screen,11_5_2,2023-01-16T05:33:36.448Z,,,b,,,0,234,timeout,e.jpg,,,184242,184242,184021,184021,183699,183933,
刺激提示,canvas.Screen,11_5_3,2023-01-16T05:33:37.140Z,,,b,true,b,0,998,response,e.jpg,b,keypress(f),184935,184931,184242,184242,183933,184666,
フィードバック(0.5秒),canvas.Screen,11_5_4,2023-01-16T05:33:37.408Z,,,b,,,0,200,timeout,e.jpg,,,185202,185201,184633,184948,184666,184866,
トライアル,flow.Sequence,11_5,2023-01-16T05:33:37.408Z,,,b,,,0,2468,completion,e.jpg,,,185202,185201,183068,183068,182733,184866,
空白時間1 (0.5秒),canvas.Screen,11_6_0,2023-01-16T05:33:37.631Z,,,b,,,135,267,timeout,e.jpg,,,185426,185425,185201,185202,184866,185133,
注視(1秒),canvas.Screen,11_6_1,2023-01-16T05:33:38.384Z,,,b,,,135,700,timeout,e.jpg,,,186178,186178,185425,185426,185133,185833,
空白時間2 (0.5秒),canvas.Screen,11_6_2,2023-01-16T05:33:38.618Z,,,b,,,135,233,timeout,e.jpg,,,186412,186412,186178,186178,185833,186066,
刺激提示,canvas.Screen,11_6_3,2023-01-16T05:33:39.406Z,,,b,true,b,135,1130,response,e.jpg,b,keypress(f),187200,187196,186412,186412,186066,186933,
フィードバック(0.5秒),canvas.Screen,11_6_4,2023-01-16T05:33:39.681Z,,,b,,,135,200,timeout,e.jpg,,,187475,187474,186899,187202,186933,187133,
トライアル,flow.Sequence,11_6,2023-01-16T05:33:39.681Z,,,b,,,135,2608,completion,e.jpg,,,187475,187474,185201,185202,184866,187133,
空白時間1 (0.5秒),canvas.Screen,11_7_0,2023-01-16T05:33:39.905Z,,,d,,,225,266,timeout,eR.jpg,,,187700,187700,187474,187475,187133,187399,
注視(1秒),canvas.Screen,11_7_1,2023-01-16T05:33:40.658Z,,,d,,,225,734,timeout,eR.jpg,,,188452,188452,187700,187700,187399,188133,
空白時間2 (0.5秒),canvas.Screen,11_7_2,2023-01-16T05:33:40.882Z,,,d,,,225,233,timeout,eR.jpg,,,188676,188676,188452,188453,188133,188366,
刺激提示,canvas.Screen,11_7_3,2023-01-16T05:33:41.632Z,,,d,true,d,225,1057,response,eR.jpg,d,keypress(j),189427,189423,188676,188676,188366,189133,
フィードバック(0.5秒),canvas.Screen,11_7_4,2023-01-16T05:33:41.873Z,,,d,,,225,200,timeout,eR.jpg,,,189667,189666,189099,189428,189133,189333,
トライアル,flow.Sequence,11_7,2023-01-16T05:33:41.873Z,,,d,,,225,2533,completion,eR.jpg,,,189667,189666,187474,187475,187133,189333,
空白時間1 (0.5秒),canvas.Screen,11_8_0,2023-01-16T05:33:42.099Z,,,d,,,90,233,timeout,eR.jpg,,,189893,189893,189666,189667,189333,189566,
注視(1秒),canvas.Screen,11_8_1,2023-01-16T05:33:42.825Z,,,d,,,90,767,timeout,eR.jpg,,,190619,190619,189893,189893,189566,190333,
空白時間2 (0.5秒),canvas.Screen,11_8_2,2023-01-16T05:33:43.081Z,,,d,,,90,200,timeout,eR.jpg,,,190875,190875,190619,190619,190333,190533,
刺激提示,canvas.Screen,11_8_3,2023-01-16T05:33:43.800Z,,,d,true,d,90,1057,response,eR.jpg,d,keypress(j),191594,191590,190875,190875,190533,191299,
フィードバック(0.5秒),canvas.Screen,11_8_4,2023-01-16T05:33:44.041Z,,,d,,,90,200,timeout,eR.jpg,,,191834,191834,191266,191596,191299,191499,
トライアル,flow.Sequence,11_8,2023-01-16T05:33:44.041Z,,,d,,,90,2501,completion,eR.jpg,,,191835,191834,189666,189667,189333,191499,
空白時間1 (0.5秒),canvas.Screen,11_9_0,2023-01-16T05:33:44.266Z,,,d,,,315,234,timeout,eR.jpg,,,192060,192060,191834,191835,191499,191733,
注視(1秒),canvas.Screen,11_9_1,2023-01-16T05:33:44.993Z,,,d,,,315,733,timeout,eR.jpg,,,192786,192786,192060,192061,191733,192466,
空白時間2 (0.5秒),canvas.Screen,11_9_2,2023-01-16T05:33:45.216Z,,,d,,,315,200,timeout,eR.jpg,,,193010,193010,192786,192787,192466,192666,
刺激提示,canvas.Screen,11_9_3,2023-01-16T05:33:45.843Z,,,d,true,d,315,968,response,eR.jpg,d,keypress(j),193637,193634,193010,193010,192666,193366,
フィードバック(0.5秒),canvas.Screen,11_9_4,2023-01-16T05:33:46.114Z,,,d,,,315,200,timeout,eR.jpg,,,193908,193908,193333,193638,193366,193566,
トライアル,flow.Sequence,11_9,2023-01-16T05:33:46.114Z,,,d,,,315,2409,completion,eR.jpg,,,193908,193908,191834,191835,191499,193566,
空白時間1 (0.5秒),canvas.Screen,11_10_0,2023-01-16T05:33:46.347Z,,,d,,,180,233,timeout,eR.jpg,,,194141,194141,193908,193908,193566,193799,
注視(1秒),canvas.Screen,11_10_1,2023-01-16T05:33:47.057Z,,,d,,,180,734,timeout,eR.jpg,,,194851,194851,194141,194141,193799,194533,
空白時間2 (0.5秒),canvas.Screen,11_10_2,2023-01-16T05:33:47.283Z,,,d,,,180,233,timeout,eR.jpg,,,195077,195077,194851,194851,194533,194766,
刺激提示,canvas.Screen,11_10_3,2023-01-16T05:33:48.420Z,,,d,true,d,180,1445,response,eR.jpg,d,keypress(j),196215,196211,195077,195077,194766,195933,
フィードバック(0.5秒),canvas.Screen,11_10_4,2023-01-16T05:33:48.672Z,,,d,,,180,200,timeout,eR.jpg,,,196467,196466,195899,196216,195933,196133,
トライアル,flow.Sequence,11_10,2023-01-16T05:33:48.672Z,,,d,,,180,2900,completion,eR.jpg,,,196467,196466,193908,193908,193566,196133,
空白時間1 (0.5秒),canvas.Screen,11_11_0,2023-01-16T05:33:48.899Z,,,b,,,90,233,timeout,e.jpg,,,196693,196693,196466,196467,196133,196366,
注視(1秒),canvas.Screen,11_11_1,2023-01-16T05:33:49.628Z,,,b,,,90,733,timeout,e.jpg,,,197422,197421,196693,196693,196366,197099,
空白時間2 (0.5秒),canvas.Screen,11_11_2,2023-01-16T05:33:49.856Z,,,b,,,90,234,timeout,e.jpg,,,197651,197651,197421,197422,197099,197333,
刺激提示,canvas.Screen,11_11_3,2023-01-16T05:33:50.554Z,,,b,true,b,90,1012,response,e.jpg,b,keypress(f),198347,198345,197651,197651,197333,198066,
フィードバック(0.5秒),canvas.Screen,11_11_4,2023-01-16T05:33:50.810Z,,,b,,,90,200,timeout,e.jpg,,,198604,198604,198033,198349,198066,198266,
トライアル,flow.Sequence,11_11,2023-01-16T05:33:50.811Z,,,b,,,90,2471,completion,e.jpg,,,198605,198604,196466,196467,196133,198266,
空白時間1 (0.5秒),canvas.Screen,11_12_0,2023-01-16T05:33:51.031Z,,,b,,,270,233,timeout,e.jpg,,,198825,198825,198604,198605,198266,198499,
注視(1秒),canvas.Screen,11_12_1,2023-01-16T05:33:51.752Z,,,b,,,270,734,timeout,e.jpg,,,199546,199546,198825,198825,198499,199233,
空白時間2 (0.5秒),canvas.Screen,11_12_2,2023-01-16T05:33:51.978Z,,,b,,,270,200,timeout,e.jpg,,,199772,199772,199546,199546,199233,199433,
刺激提示,canvas.Screen,11_12_3,2023-01-16T05:33:52.652Z,,,b,true,b,270,1009,response,e.jpg,b,keypress(f),200446,200442,199772,199772,199433,200166,
フィードバック(0.5秒),canvas.Screen,11_12_4,2023-01-16T05:33:52.912Z,,,b,,,270,200,timeout,e.jpg,,,200707,200706,200133,200447,200166,200366,
トライアル,flow.Sequence,11_12,2023-01-16T05:33:52.912Z,,,b,,,270,2440,completion,e.jpg,,,200707,200706,198604,198605,198266,200366,
空白時間1 (0.5秒),canvas.Screen,11_13_0,2023-01-16T05:33:53.140Z,,,b,,,315,233,timeout,e.jpg,,,200934,200933,200706,200707,200366,200599,
注視(1秒),canvas.Screen,11_13_1,2023-01-16T05:33:53.858Z,,,b,,,315,734,timeout,e.jpg,,,201652,201652,200933,200934,200599,201333,
空白時間2 (0.5秒),canvas.Screen,11_13_2,2023-01-16T05:33:54.091Z,,,b,,,315,233,timeout,e.jpg,,,201886,201885,201652,201652,201333,201566,
刺激提示,canvas.Screen,11_13_3,2023-01-16T05:33:54.700Z,,,b,true,b,315,925,response,e.jpg,b,keypress(f),202495,202491,201885,201886,201566,202199,
フィードバック(0.5秒),canvas.Screen,11_13_4,2023-01-16T05:33:54.947Z,,,b,,,315,200,timeout,e.jpg,,,202741,202741,202166,202496,202199,202399,
トライアル,flow.Sequence,11_13,2023-01-16T05:33:54.947Z,,,b,,,315,2375,completion,e.jpg,,,202741,202741,200706,200707,200366,202399,
空白時間1 (0.5秒),canvas.Screen,11_14_0,2023-01-16T05:33:55.170Z,,,b,,,180,234,timeout,e.jpg,,,202965,202964,202741,202741,202399,202633,
注視(1秒),canvas.Screen,11_14_1,2023-01-16T05:33:55.889Z,,,b,,,180,733,timeout,e.jpg,,,203683,203683,202964,202965,202633,203366,
空白時間2 (0.5秒),canvas.Screen,11_14_2,2023-01-16T05:33:56.113Z,,,b,,,180,200,timeout,e.jpg,,,203907,203907,203683,203683,203366,203566,
刺激提示,canvas.Screen,11_14_3,2023-01-16T05:33:57.163Z,,,b,true,b,180,1388,response,e.jpg,b,keypress(f),204957,204954,203907,203907,203566,204666,
フィードバック(0.5秒),canvas.Screen,11_14_4,2023-01-16T05:33:57.412Z,,,b,,,180,200,timeout,e.jpg,,,205206,205206,204633,204958,204666,204866,
トライアル,flow.Sequence,11_14,2023-01-16T05:33:57.412Z,,,b,,,180,2807,completion,e.jpg,,,205206,205206,202741,202741,202399,204866,
空白時間1 (0.5秒),canvas.Screen,11_15_0,2023-01-16T05:33:57.641Z,,,d,,,270,233,timeout,eR.jpg,,,205436,205436,205206,205206,204866,205099,
注視(1秒),canvas.Screen,11_15_1,2023-01-16T05:33:58.353Z,,,d,,,270,734,timeout,eR.jpg,,,206147,206147,205436,205436,205099,205833,
空白時間2 (0.5秒),canvas.Screen,11_15_2,2023-01-16T05:33:58.579Z,,,d,,,270,200,timeout,eR.jpg,,,206373,206373,206147,206147,205833,206033,
刺激提示,canvas.Screen,11_15_3,2023-01-16T05:33:59.200Z,,,d,true,d,270,958,response,eR.jpg,d,keypress(j),206994,206991,206373,206373,206033,206699,
フィードバック(0.5秒),canvas.Screen,11_15_4,2023-01-16T05:33:59.443Z,,,d,,,270,200,timeout,eR.jpg,,,207237,207237,206666,206996,206699,206899,
トライアル,flow.Sequence,11_15,2023-01-16T05:33:59.443Z,,,d,,,270,2371,completion,eR.jpg,,,207237,207237,205206,205206,204866,206899,
タスクのセット,flow.Loop,11,2023-01-16T05:33:59.443Z,,,,,,,35471,completion,,,,207237,207237,172109,172109,171766,206899,
空白時間1 (0.5秒),canvas.Screen,12_0_0,2023-01-16T05:33:59.663Z,,,b,,,135,234,timeout,e.jpg,,,207458,207457,207237,207237,206899,207133,
注視(1秒),canvas.Screen,12_0_1,2023-01-16T05:34:00.377Z,,,b,,,135,700,timeout,e.jpg,,,208172,208171,207457,207458,207133,207833,
空白時間2 (0.5秒),canvas.Screen,12_0_2,2023-01-16T05:34:00.603Z,,,b,,,135,233,timeout,e.jpg,,,208397,208397,208171,208172,207833,208066,
刺激提示,canvas.Screen,12_0_3,2023-01-16T05:34:01.399Z,,,b,true,b,135,1123,response,e.jpg,b,keypress(f),209193,209189,208397,208397,208066,208899,
フィードバック(0.5秒),canvas.Screen,12_0_4,2023-01-16T05:34:01.643Z,,,b,,,135,200,timeout,e.jpg,,,209437,209436,208866,209205,208899,209099,
トライアル,flow.Sequence,12_0,2023-01-16T05:34:01.643Z,,,b,,,135,2537,completion,e.jpg,,,209438,209436,207237,207237,206899,209099,
空白時間1 (0.5秒),canvas.Screen,12_1_0,2023-01-16T05:34:01.865Z,,,d,,,225,234,timeout,eR.jpg,,,209659,209659,209436,209438,209099,209333,
注視(1秒),canvas.Screen,12_1_1,2023-01-16T05:34:02.576Z,,,d,,,225,700,timeout,eR.jpg,,,210370,210370,209659,209659,209333,210033,
空白時間2 (0.5秒),canvas.Screen,12_1_2,2023-01-16T05:34:02.803Z,,,d,,,225,266,timeout,eR.jpg,,,210597,210597,210370,210371,210033,210299,
刺激提示,canvas.Screen,12_1_3,2023-01-16T05:34:03.584Z,,,d,true,d,225,1076,response,eR.jpg,d,keypress(j),211378,211375,210597,210597,210299,211099,
フィードバック(0.5秒),canvas.Screen,12_1_4,2023-01-16T05:34:03.840Z,,,d,,,225,200,timeout,eR.jpg,,,211635,211635,211066,211379,211099,211299,
トライアル,flow.Sequence,12_1,2023-01-16T05:34:03.841Z,,,d,,,225,2536,completion,eR.jpg,,,211635,211635,209436,209438,209099,211299,
空白時間1 (0.5秒),canvas.Screen,12_2_0,2023-01-16T05:34:04.066Z,,,d,,,180,234,timeout,eR.jpg,,,211861,211861,211635,211635,211299,211533,
注視(1秒),canvas.Screen,12_2_1,2023-01-16T05:34:04.793Z,,,d,,,180,733,timeout,eR.jpg,,,212588,212587,211861,211861,211533,212266,
空白時間2 (0.5秒),canvas.Screen,12_2_2,2023-01-16T05:34:05.015Z,,,d,,,180,200,timeout,eR.jpg,,,212809,212809,212587,212588,212266,212466,
刺激提示,canvas.Screen,12_2_3,2023-01-16T05:34:06.029Z,,,d,true,d,180,1354,response,eR.jpg,d,keypress(j),213824,213820,212809,212809,212466,213533,
フィードバック(0.5秒),canvas.Screen,12_2_4,2023-01-16T05:34:06.273Z,,,d,,,180,200,timeout,eR.jpg,,,214068,214068,213499,213825,213533,213733,
トライアル,flow.Sequence,12_2,2023-01-16T05:34:06.274Z,,,d,,,180,2769,completion,eR.jpg,,,214068,214068,211635,211635,211299,213733,
空白時間1 (0.5秒),canvas.Screen,12_3_0,2023-01-16T05:34:06.499Z,,,b,,,225,233,timeout,e.jpg,,,214292,214292,214068,214068,213733,213966,
注視(1秒),canvas.Screen,12_3_1,2023-01-16T05:34:07.226Z,,,b,,,225,733,timeout,e.jpg,,,215020,215019,214292,214293,213966,214699,
空白時間2 (0.5秒),canvas.Screen,12_3_2,2023-01-16T05:34:07.451Z,,,b,,,225,200,timeout,e.jpg,,,215246,215246,215019,215020,214699,214899,
刺激提示,canvas.Screen,12_3_3,2023-01-16T05:34:08.066Z,,,b,true,b,225,957,response,e.jpg,b,keypress(f),215860,215856,215246,215246,214899,215599,
フィードバック(0.5秒),canvas.Screen,12_3_4,2023-01-16T05:34:08.344Z,,,b,,,225,200,timeout,e.jpg,,,216138,216138,215566,215862,215599,215799,
トライアル,flow.Sequence,12_3,2023-01-16T05:34:08.344Z,,,b,,,225,2405,completion,e.jpg,,,216138,216138,214068,214068,213733,215799,
空白時間1 (0.5秒),canvas.Screen,12_4_0,2023-01-16T05:34:08.569Z,,,d,,,45,234,timeout,eR.jpg,,,216364,216364,216138,216138,215799,216033,
注視(1秒),canvas.Screen,12_4_1,2023-01-16T05:34:09.287Z,,,d,,,45,733,timeout,eR.jpg,,,217081,217081,216364,216364,216033,216766,
空白時間2 (0.5秒),canvas.Screen,12_4_2,2023-01-16T05:34:09.514Z,,,d,,,45,200,timeout,eR.jpg,,,217308,217308,217081,217081,216766,216966,
刺激提示,canvas.Screen,12_4_3,2023-01-16T05:34:10.224Z,,,d,true,d,45,1049,response,eR.jpg,d,keypress(j),218018,218015,217308,217308,216966,217733,
フィードバック(0.5秒),canvas.Screen,12_4_4,2023-01-16T05:34:10.473Z,,,d,,,45,200,timeout,eR.jpg,,,218267,218266,217699,218019,217733,217933,
トライアル,flow.Sequence,12_4,2023-01-16T05:34:10.473Z,,,d,,,45,2467,completion,eR.jpg,,,218267,218266,216138,216138,215799,217933,
空白時間1 (0.5秒),canvas.Screen,12_5_0,2023-01-16T05:34:10.704Z,,,b,,,180,233,timeout,e.jpg,,,218499,218498,218266,218268,217933,218166,
注視(1秒),canvas.Screen,12_5_1,2023-01-16T05:34:11.426Z,,,b,,,180,733,timeout,e.jpg,,,219221,219220,218498,218499,218166,218899,
空白時間2 (0.5秒),canvas.Screen,12_5_2,2023-01-16T05:34:11.651Z,,,b,,,180,200,timeout,e.jpg,,,219445,219445,219220,219221,218899,219099,
刺激提示,canvas.Screen,12_5_3,2023-01-16T05:34:12.410Z,,,b,true,b,180,1102,response,e.jpg,b,keypress(f),220204,220201,219445,219446,219099,219899,
フィードバック(0.5秒),canvas.Screen,12_5_4,2023-01-16T05:34:12.644Z,,,b,,,180,200,timeout,e.jpg,,,220438,220438,219866,220205,219899,220099,
トライアル,flow.Sequence,12_5,2023-01-16T05:34:12.644Z,,,b,,,180,2505,completion,e.jpg,,,220438,220438,218266,218268,217933,220099,
空白時間1 (0.5秒),canvas.Screen,12_6_0,2023-01-16T05:34:12.866Z,,,b,,,0,267,timeout,e.jpg,,,220661,220661,220438,220438,220099,220366,
注視(1秒),canvas.Screen,12_6_1,2023-01-16T05:34:13.617Z,,,b,,,0,700,timeout,e.jpg,,,221411,221411,220661,220661,220366,221066,
空白時間2 (0.5秒),canvas.Screen,12_6_2,2023-01-16T05:34:13.842Z,,,b,,,0,233,timeout,e.jpg,,,221635,221635,221411,221412,221066,221299,
刺激提示,canvas.Screen,12_6_3,2023-01-16T05:34:14.489Z,,,b,true,b,0,980,response,e.jpg,b,keypress(f),222282,222279,221635,221635,221299,221999,
フィードバック(0.5秒),canvas.Screen,12_6_4,2023-01-16T05:34:14.746Z,,,b,,,0,234,timeout,e.jpg,,,222540,222540,221966,222285,221999,222233,
トライアル,flow.Sequence,12_6,2023-01-16T05:34:14.746Z,,,b,,,0,2441,completion,e.jpg,,,222541,222540,220438,220438,220099,222233,
空白時間1 (0.5秒),canvas.Screen,12_7_0,2023-01-16T05:34:14.978Z,,,b,,,270,200,timeout,e.jpg,,,222772,222771,222540,222541,222233,222433,
注視(1秒),canvas.Screen,12_7_1,2023-01-16T05:34:15.691Z,,,b,,,270,733,timeout,e.jpg,,,223485,223485,222771,222772,222433,223166,
空白時間2 (0.5秒),canvas.Screen,12_7_2,2023-01-16T05:34:15.913Z,,,b,,,270,200,timeout,e.jpg,,,223707,223707,223485,223485,223166,223366,
刺激提示,canvas.Screen,12_7_3,2023-01-16T05:34:16.583Z,,,b,true,b,270,1007,response,e.jpg,b,keypress(f),224378,224373,223707,223707,223366,224099,
フィードバック(0.5秒),canvas.Screen,12_7_4,2023-01-16T05:34:16.844Z,,,b,,,270,200,timeout,e.jpg,,,224638,224638,224066,224379,224099,224299,
トライアル,flow.Sequence,12_7,2023-01-16T05:34:16.844Z,,,b,,,270,2405,completion,e.jpg,,,224638,224638,222540,222541,222233,224299,
空白時間1 (0.5秒),canvas.Screen,12_8_0,2023-01-16T05:34:17.066Z,,,d,,,270,234,timeout,eR.jpg,,,224860,224860,224638,224639,224299,224533,
注視(1秒),canvas.Screen,12_8_1,2023-01-16T05:34:17.787Z,,,d,,,270,733,timeout,eR.jpg,,,225581,225581,224860,224861,224533,225266,
空白時間2 (0.5秒),canvas.Screen,12_8_2,2023-01-16T05:34:18.011Z,,,d,,,270,200,timeout,eR.jpg,,,225806,225805,225581,225581,225266,225466,
刺激提示,canvas.Screen,12_8_3,2023-01-16T05:34:18.626Z,,,d,true,d,270,950,response,eR.jpg,d,keypress(j),226420,226416,225805,225806,225466,226133,
フィードバック(0.5秒),canvas.Screen,12_8_4,2023-01-16T05:34:18.881Z,,,d,,,270,200,timeout,eR.jpg,,,226675,226675,226099,226422,226133,226333,
トライアル,flow.Sequence,12_8,2023-01-16T05:34:18.881Z,,,d,,,270,2376,completion,eR.jpg,,,226676,226675,224638,224639,224299,226333,
空白時間1 (0.5秒),canvas.Screen,12_9_0,2023-01-16T05:34:19.105Z,,,b,,,90,233,timeout,e.jpg,,,226899,226899,226675,226676,226333,226566,
注視(1秒),canvas.Screen,12_9_1,2023-01-16T05:34:19.826Z,,,b,,,90,733,timeout,e.jpg,,,227620,227620,226899,226899,226566,227299,
空白時間2 (0.5秒),canvas.Screen,12_9_2,2023-01-16T05:34:20.049Z,,,b,,,90,200,timeout,e.jpg,,,227843,227843,227620,227621,227299,227499,
刺激提示,canvas.Screen,12_9_3,2023-01-16T05:34:20.712Z,,,b,true,b,90,1003,response,e.jpg,b,keypress(f),228506,228502,227843,227843,227499,228199,
フィードバック(0.5秒),canvas.Screen,12_9_4,2023-01-16T05:34:20.943Z,,,b,,,90,200,timeout,e.jpg,,,228737,228737,228166,228507,228199,228399,
トライアル,flow.Sequence,12_9,2023-01-16T05:34:20.943Z,,,b,,,90,2404,completion,e.jpg,,,228737,228737,226675,226676,226333,228399,
空白時間1 (0.5秒),canvas.Screen,12_10_0,2023-01-16T05:34:21.172Z,,,d,,,90,267,timeout,eR.jpg,,,228966,228966,228737,228737,228399,228666,
注視(1秒),canvas.Screen,12_10_1,2023-01-16T05:34:21.922Z,,,d,,,90,733,timeout,eR.jpg,,,229716,229716,228966,228966,228666,229399,
空白時間2 (0.5秒),canvas.Screen,12_10_2,2023-01-16T05:34:22.146Z,,,d,,,90,234,timeout,eR.jpg,,,229940,229939,229716,229716,229399,229633,
刺激提示,canvas.Screen,12_10_3,2023-01-16T05:34:22.715Z,,,d,true,d,90,874,response,eR.jpg,d,keypress(j),230509,230507,229939,229940,229633,230233,
フィードバック(0.5秒),canvas.Screen,12_10_4,2023-01-16T05:34:22.980Z,,,d,,,90,200,timeout,eR.jpg,,,230774,230774,230166,230510,230233,230433,
トライアル,flow.Sequence,12_10,2023-01-16T05:34:22.980Z,,,d,,,90,2375,completion,eR.jpg,,,230774,230774,228737,228737,228399,230433,
空白時間1 (0.5秒),canvas.Screen,12_11_0,2023-01-16T05:34:23.203Z,,,d,,,0,233,timeout,eR.jpg,,,230998,230997,230774,230774,230433,230666,
注視(1秒),canvas.Screen,12_11_1,2023-01-16T05:34:23.920Z,,,d,,,0,733,timeout,eR.jpg,,,231715,231715,230997,230998,230666,231399,
空白時間2 (0.5秒),canvas.Screen,12_11_2,2023-01-16T05:34:24.146Z,,,d,,,0,200,timeout,eR.jpg,,,231940,231940,231715,231715,231399,231599,
刺激提示,canvas.Screen,12_11_3,2023-01-16T05:34:24.702Z,,,d,true,d,0,894,response,eR.jpg,d,keypress(j),232496,232493,231940,231941,231599,232199,
フィードバック(0.5秒),canvas.Screen,12_11_4,2023-01-16T05:34:24.944Z,,,d,,,0,200,timeout,eR.jpg,,,232739,232738,232166,232497,232199,232399,
トライアル,flow.Sequence,12_11,2023-01-16T05:34:24.944Z,,,d,,,0,2305,completion,eR.jpg,,,232739,232738,230774,230774,230433,232399,
空白時間1 (0.5秒),canvas.Screen,12_12_0,2023-01-16T05:34:25.169Z,,,b,,,45,234,timeout,e.jpg,,,232963,232963,232738,232739,232399,232633,
注視(1秒),canvas.Screen,12_12_1,2023-01-16T05:34:25.889Z,,,b,,,45,733,timeout,e.jpg,,,233683,233683,232963,232963,232633,233366,
空白時間2 (0.5秒),canvas.Screen,12_12_2,2023-01-16T05:34:26.114Z,,,b,,,45,200,timeout,e.jpg,,,233909,233908,233683,233683,233366,233566,
刺激提示,canvas.Screen,12_12_3,2023-01-16T05:34:26.668Z,,,b,true,b,45,893,response,e.jpg,b,keypress(f),234463,234459,233908,233909,233566,234166,
フィードバック(0.5秒),canvas.Screen,12_12_4,2023-01-16T05:34:26.907Z,,,b,,,45,200,timeout,e.jpg,,,234702,234702,234133,234464,234166,234366,
トライアル,flow.Sequence,12_12,2023-01-16T05:34:26.907Z,,,b,,,45,2303,completion,e.jpg,,,234702,234702,232738,232739,232399,234366,
空白時間1 (0.5秒),canvas.Screen,12_13_0,2023-01-16T05:34:27.138Z,,,d,,,315,267,timeout,eR.jpg,,,234932,234932,234702,234702,234366,234633,
注視(1秒),canvas.Screen,12_13_1,2023-01-16T05:34:27.888Z,,,d,,,315,733,timeout,eR.jpg,,,235683,235683,234932,234933,234633,235366,
空白時間2 (0.5秒),canvas.Screen,12_13_2,2023-01-16T05:34:28.123Z,,,d,,,315,233,timeout,eR.jpg,,,235918,235917,235683,235683,235366,235599,
刺激提示,canvas.Screen,12_13_3,2023-01-16T05:34:28.691Z,,,d,true,d,315,883,response,eR.jpg,d,keypress(j),236485,236482,235917,235918,235599,236199,
フィードバック(0.5秒),canvas.Screen,12_13_4,2023-01-16T05:34:28.946Z,,,d,,,315,200,timeout,eR.jpg,,,236741,236740,236166,236486,236199,236399,
トライアル,flow.Sequence,12_13,2023-01-16T05:34:28.947Z,,,d,,,315,2374,completion,eR.jpg,,,236741,236740,234702,234702,234366,236399,
空白時間1 (0.5秒),canvas.Screen,12_14_0,2023-01-16T05:34:29.171Z,,,d,,,135,234,timeout,eR.jpg,,,236965,236965,236740,236741,236399,236633,
注視(1秒),canvas.Screen,12_14_1,2023-01-16T05:34:29.888Z,,,d,,,135,733,timeout,eR.jpg,,,237682,237682,236965,236965,236633,237366,
空白時間2 (0.5秒),canvas.Screen,12_14_2,2023-01-16T05:34:30.113Z,,,d,,,135,200,timeout,eR.jpg,,,237907,237907,237682,237682,237366,237566,
刺激提示,canvas.Screen,12_14_3,2023-01-16T05:34:30.788Z,,,d,true,d,135,1013,response,eR.jpg,d,keypress(j),238583,238579,237907,237907,237566,238299,
フィードバック(0.5秒),canvas.Screen,12_14_4,2023-01-16T05:34:31.041Z,,,d,,,135,200,timeout,eR.jpg,,,238835,238835,238266,238584,238299,238499,
トライアル,flow.Sequence,12_14,2023-01-16T05:34:31.041Z,,,d,,,135,2436,completion,eR.jpg,,,238835,238835,236740,236741,236399,238499,
空白時間1 (0.5秒),canvas.Screen,12_15_0,2023-01-16T05:34:31.273Z,,,b,,,315,234,timeout,e.jpg,,,239067,239067,238835,238836,238499,238733,
注視(1秒),canvas.Screen,12_15_1,2023-01-16T05:34:31.977Z,,,b,,,315,700,timeout,e.jpg,,,239771,239771,239067,239067,238733,239433,
空白時間2 (0.5秒),canvas.Screen,12_15_2,2023-01-16T05:34:32.207Z,,,b,,,315,233,timeout,e.jpg,,,240002,240001,239771,239771,239433,239666,
刺激提示,canvas.Screen,12_15_3,2023-01-16T05:34:32.718Z,,,b,true,b,315,843,response,e.jpg,b,keypress(f),240512,240509,240001,240002,239666,240233,
フィードバック(0.5秒),canvas.Screen,12_15_4,2023-01-16T05:34:32.976Z,,,b,,,315,200,timeout,e.jpg,,,240770,240770,240199,240514,240233,240433,
トライアル,flow.Sequence,12_15,2023-01-16T05:34:32.976Z,,,b,,,315,2271,completion,e.jpg,,,240770,240770,238835,238836,238499,240433,
タスクのセット,flow.Loop,12,2023-01-16T05:34:32.977Z,,,,,,,33871,completion,,,,240770,240770,207237,207237,206899,240433,
空白時間1 (0.5秒),canvas.Screen,13_0_0,2023-01-16T05:34:33.203Z,,,b,,,45,233,timeout,e.jpg,,,240997,240997,240770,240771,240433,240666,
注視(1秒),canvas.Screen,13_0_1,2023-01-16T05:34:33.912Z,,,b,,,45,700,timeout,e.jpg,,,241706,241706,240997,240997,240666,241366,
空白時間2 (0.5秒),canvas.Screen,13_0_2,2023-01-16T05:34:34.136Z,,,b,,,45,233,timeout,e.jpg,,,241930,241930,241706,241706,241366,241599,
刺激提示,canvas.Screen,13_0_3,2023-01-16T05:34:34.655Z,,,b,true,b,45,847,response,e.jpg,b,keypress(f),242449,242446,241930,241931,241599,242166,
フィードバック(0.5秒),canvas.Screen,13_0_4,2023-01-16T05:34:34.913Z,,,b,,,45,200,timeout,e.jpg,,,242706,242706,242133,242450,242166,242366,
トライアル,flow.Sequence,13_0,2023-01-16T05:34:34.913Z,,,b,,,45,2273,completion,e.jpg,,,242707,242706,240770,240771,240433,242366,
空白時間1 (0.5秒),canvas.Screen,13_1_0,2023-01-16T05:34:35.140Z,,,d,,,270,233,timeout,eR.jpg,,,242933,242933,242706,242707,242366,242599,
注視(1秒),canvas.Screen,13_1_1,2023-01-16T05:34:35.858Z,,,d,,,270,734,timeout,eR.jpg,,,243652,243652,242933,242935,242599,243333,
空白時間2 (0.5秒),canvas.Screen,13_1_2,2023-01-16T05:34:36.091Z,,,d,,,270,266,timeout,eR.jpg,,,243886,243885,243652,243652,243333,243599,
刺激提示,canvas.Screen,13_1_3,2023-01-16T05:34:36.591Z,,,d,true,d,270,783,response,eR.jpg,d,keypress(j),244385,244382,243885,243886,243599,244099,
フィードバック(0.5秒),canvas.Screen,13_1_4,2023-01-16T05:34:36.843Z,,,d,,,270,200,timeout,eR.jpg,,,244637,244637,244066,244386,244099,244299,
トライアル,flow.Sequence,13_1,2023-01-16T05:34:36.843Z,,,d,,,270,2271,completion,eR.jpg,,,244637,244637,242706,242707,242366,244299,
空白時間1 (0.5秒),canvas.Screen,13_2_0,2023-01-16T05:34:37.073Z,,,d,,,90,234,timeout,eR.jpg,,,244867,244867,244637,244637,244299,244533,
注視(1秒),canvas.Screen,13_2_1,2023-01-16T05:34:37.776Z,,,d,,,90,700,timeout,eR.jpg,,,245570,245570,244867,244867,244533,245233,
空白時間2 (0.5秒),canvas.Screen,13_2_2,2023-01-16T05:34:38.003Z,,,d,,,90,233,timeout,eR.jpg,,,245797,245797,245570,245570,245233,245466,
刺激提示,canvas.Screen,13_2_3,2023-01-16T05:34:38.575Z,,,d,true,d,90,900,response,eR.jpg,d,keypress(j),246369,246366,245797,245797,245466,246066,
フィードバック(0.5秒),canvas.Screen,13_2_4,2023-01-16T05:34:38.811Z,,,d,,,90,233,timeout,eR.jpg,,,246606,246606,246033,246370,246066,246299,
トライアル,flow.Sequence,13_2,2023-01-16T05:34:38.811Z,,,d,,,90,2307,completion,eR.jpg,,,246606,246606,244637,244637,244299,246299,
空白時間1 (0.5秒),canvas.Screen,13_3_0,2023-01-16T05:34:39.043Z,,,b,,,0,200,timeout,e.jpg,,,246837,246837,246606,246606,246299,246499,
注視(1秒),canvas.Screen,13_3_1,2023-01-16T05:34:39.761Z,,,b,,,0,734,timeout,e.jpg,,,247555,247555,246837,246837,246499,247233,
空白時間2 (0.5秒),canvas.Screen,13_3_2,2023-01-16T05:34:39.987Z,,,b,,,0,233,timeout,e.jpg,,,247781,247781,247555,247555,247233,247466,
刺激提示,canvas.Screen,13_3_3,2023-01-16T05:34:40.550Z,,,b,true,b,0,874,response,e.jpg,b,keypress(f),248344,248340,247781,247781,247466,248066,
フィードバック(0.5秒),canvas.Screen,13_3_4,2023-01-16T05:34:40.811Z,,,b,,,0,200,timeout,e.jpg,,,248605,248605,247999,248345,248066,248266,
トライアル,flow.Sequence,13_3,2023-01-16T05:34:40.812Z,,,b,,,0,2306,completion,e.jpg,,,248605,248605,246606,246606,246299,248266,
空白時間1 (0.5秒),canvas.Screen,13_4_0,2023-01-16T05:34:41.041Z,,,b,,,315,267,timeout,e.jpg,,,248835,248835,248605,248606,248266,248533,
注視(1秒),canvas.Screen,13_4_1,2023-01-16T05:34:41.780Z,,,b,,,315,700,timeout,e.jpg,,,249574,249574,248835,248836,248533,249233,
空白時間2 (0.5秒),canvas.Screen,13_4_2,2023-01-16T05:34:42.009Z,,,b,,,315,233,timeout,e.jpg,,,249804,249803,249574,249574,249233,249466,
刺激提示,canvas.Screen,13_4_3,2023-01-16T05:34:42.566Z,,,b,true,b,315,890,response,e.jpg,b,keypress(f),250360,250356,249803,249804,249466,250066,
フィードバック(0.5秒),canvas.Screen,13_4_4,2023-01-16T05:34:42.807Z,,,b,,,315,233,timeout,e.jpg,,,250601,250601,250033,250362,250066,250299,
トライアル,flow.Sequence,13_4,2023-01-16T05:34:42.807Z,,,b,,,315,2335,completion,e.jpg,,,250601,250601,248605,248605,248266,250299,
空白時間1 (0.5秒),canvas.Screen,13_5_0,2023-01-16T05:34:43.042Z,,,b,,,90,200,timeout,e.jpg,,,250836,250836,250601,250601,250299,250499,
注視(1秒),canvas.Screen,13_5_1,2023-01-16T05:34:43.761Z,,,b,,,90,734,timeout,e.jpg,,,251555,251555,250836,250836,250499,251233,
空白時間2 (0.5秒),canvas.Screen,13_5_2,2023-01-16T05:34:43.986Z,,,b,,,90,233,timeout,e.jpg,,,251780,251779,251555,251555,251233,251466,
刺激提示,canvas.Screen,13_5_3,2023-01-16T05:34:44.646Z,,,b,true,b,90,971,response,e.jpg,b,keypress(f),252440,252437,251779,251780,251466,252133,
フィードバック(0.5秒),canvas.Screen,13_5_4,2023-01-16T05:34:44.898Z,,,b,,,90,233,timeout,e.jpg,,,252693,252693,252099,252443,252133,252366,
トライアル,flow.Sequence,13_5,2023-01-16T05:34:44.899Z,,,b,,,90,2394,completion,e.jpg,,,252693,252693,250601,250601,250299,252366,
空白時間1 (0.5秒),canvas.Screen,13_6_0,2023-01-16T05:34:45.127Z,,,b,,,135,267,timeout,e.jpg,,,252921,252921,252693,252693,252366,252633,
注視(1秒),canvas.Screen,13_6_1,2023-01-16T05:34:45.889Z,,,b,,,135,733,timeout,e.jpg,,,253683,253683,252921,252922,252633,253366,
空白時間2 (0.5秒),canvas.Screen,13_6_2,2023-01-16T05:34:46.111Z,,,b,,,135,200,timeout,e.jpg,,,253905,253905,253683,253683,253366,253566,
刺激提示,canvas.Screen,13_6_3,2023-01-16T05:34:46.800Z,,,b,true,b,135,1024,response,e.jpg,b,keypress(f),254595,254590,253905,253905,253566,254299,
フィードバック(0.5秒),canvas.Screen,13_6_4,2023-01-16T05:34:47.041Z,,,b,,,135,200,timeout,e.jpg,,,254834,254834,254266,254596,254299,254499,
トライアル,flow.Sequence,13_6,2023-01-16T05:34:47.041Z,,,b,,,135,2468,completion,e.jpg,,,254835,254834,252693,252693,252366,254499,
空白時間1 (0.5秒),canvas.Screen,13_7_0,2023-01-16T05:34:47.273Z,,,b,,,225,234,timeout,e.jpg,,,255067,255067,254834,254835,254499,254733,
注視(1秒),canvas.Screen,13_7_1,2023-01-16T05:34:47.975Z,,,b,,,225,700,timeout,e.jpg,,,255769,255769,255067,255067,254733,255433,
空白時間2 (0.5秒),canvas.Screen,13_7_2,2023-01-16T05:34:48.203Z,,,b,,,225,233,timeout,e.jpg,,,255997,255997,255769,255769,255433,255666,
刺激提示,canvas.Screen,13_7_3,2023-01-16T05:34:48.692Z,,,b,false,b,225,817,response,e.jpg,d,keypress(j),256487,256483,255997,255997,255666,256199,
フィードバック(0.5秒),canvas.Screen,13_7_4,2023-01-16T05:34:48.944Z,,,b,,,225,200,timeout,e.jpg,,,256739,256739,256166,256488,256199,256399,
トライアル,flow.Sequence,13_7,2023-01-16T05:34:48.945Z,,,b,,,225,2240,completion,e.jpg,,,256739,256739,254834,254835,254499,256399,
空白時間1 (0.5秒),canvas.Screen,13_8_0,2023-01-16T05:34:49.170Z,,,d,,,135,234,timeout,eR.jpg,,,256965,256965,256739,256739,256399,256633,
注視(1秒),canvas.Screen,13_8_1,2023-01-16T05:34:49.891Z,,,d,,,135,733,timeout,eR.jpg,,,257686,257686,256965,256965,256633,257366,
空白時間2 (0.5秒),canvas.Screen,13_8_2,2023-01-16T05:34:50.114Z,,,d,,,135,200,timeout,eR.jpg,,,257909,257908,257686,257686,257366,257566,
刺激提示,canvas.Screen,13_8_3,2023-01-16T05:34:50.757Z,,,d,true,d,135,982,response,eR.jpg,d,keypress(j),258552,258548,257908,257909,257566,258266,
フィードバック(0.5秒),canvas.Screen,13_8_4,2023-01-16T05:34:51.008Z,,,d,,,135,200,timeout,eR.jpg,,,258801,258801,258233,258552,258266,258466,
トライアル,flow.Sequence,13_8,2023-01-16T05:34:51.008Z,,,d,,,135,2402,completion,eR.jpg,,,258802,258801,256739,256739,256399,258466,
空白時間1 (0.5秒),canvas.Screen,13_9_0,2023-01-16T05:34:51.233Z,,,d,,,225,233,timeout,eR.jpg,,,259027,259027,258801,258802,258466,258699,
注視(1秒),canvas.Screen,13_9_1,2023-01-16T05:34:51.954Z,,,d,,,225,734,timeout,eR.jpg,,,259748,259748,259027,259027,258699,259433,
空白時間2 (0.5秒),canvas.Screen,13_9_2,2023-01-16T05:34:52.187Z,,,d,,,225,233,timeout,eR.jpg,,,259982,259982,259748,259748,259433,259666,
刺激提示,canvas.Screen,13_9_3,2023-01-16T05:34:52.899Z,,,d,true,d,225,1024,response,eR.jpg,d,keypress(j),260693,260690,259982,259982,259666,260399,
フィードバック(0.5秒),canvas.Screen,13_9_4,2023-01-16T05:34:53.147Z,,,d,,,225,200,timeout,eR.jpg,,,260941,260941,260366,260695,260399,260599,
トライアル,flow.Sequence,13_9,2023-01-16T05:34:53.147Z,,,d,,,225,2475,completion,eR.jpg,,,260941,260941,258801,258802,258466,260599,
空白時間1 (0.5秒),canvas.Screen,13_10_0,2023-01-16T05:34:53.370Z,,,d,,,45,234,timeout,eR.jpg,,,261164,261164,260941,260941,260599,260833,
注視(1秒),canvas.Screen,13_10_1,2023-01-16T05:34:54.082Z,,,d,,,45,700,timeout,eR.jpg,,,261876,261876,261164,261164,260833,261533,
空白時間2 (0.5秒),canvas.Screen,13_10_2,2023-01-16T05:34:54.306Z,,,d,,,45,233,timeout,eR.jpg,,,262100,262099,261876,261876,261533,261766,
刺激提示,canvas.Screen,13_10_3,2023-01-16T05:34:55.067Z,,,d,true,d,45,1091,response,eR.jpg,d,keypress(j),262861,262857,262099,262100,261766,262566,
フィードバック(0.5秒),canvas.Screen,13_10_4,2023-01-16T05:34:55.312Z,,,d,,,45,200,timeout,eR.jpg,,,263107,263107,262533,262862,262566,262766,
トライアル,flow.Sequence,13_10,2023-01-16T05:34:55.312Z,,,d,,,45,2508,completion,eR.jpg,,,263107,263107,260941,260941,260599,262766,
空白時間1 (0.5秒),canvas.Screen,13_11_0,2023-01-16T05:34:55.546Z,,,d,,,315,233,timeout,eR.jpg,,,263341,263340,263107,263107,262766,262999,
注視(1秒),canvas.Screen,13_11_1,2023-01-16T05:34:56.257Z,,,d,,,315,734,timeout,eR.jpg,,,264051,264050,263340,263341,262999,263733,
空白時間2 (0.5秒),canvas.Screen,13_11_2,2023-01-16T05:34:56.481Z,,,d,,,315,200,timeout,eR.jpg,,,264275,264275,264050,264051,263733,263933,
刺激提示,canvas.Screen,13_11_3,2023-01-16T05:34:57.120Z,,,d,true,d,315,978,response,eR.jpg,d,keypress(j),264914,264911,264275,264275,263933,264633,
フィードバック(0.5秒),canvas.Screen,13_11_4,2023-01-16T05:34:57.377Z,,,d,,,315,200,timeout,eR.jpg,,,265171,265171,264599,264916,264633,264833,
トライアル,flow.Sequence,13_11,2023-01-16T05:34:57.377Z,,,d,,,315,2405,completion,eR.jpg,,,265171,265171,263107,263107,262766,264833,
空白時間1 (0.5秒),canvas.Screen,13_12_0,2023-01-16T05:34:57.603Z,,,b,,,270,233,timeout,e.jpg,,,265398,265397,265171,265171,264833,265066,
注視(1秒),canvas.Screen,13_12_1,2023-01-16T05:34:58.321Z,,,b,,,270,733,timeout,e.jpg,,,266115,266115,265397,265398,265066,265799,
空白時間2 (0.5秒),canvas.Screen,13_12_2,2023-01-16T05:34:58.545Z,,,b,,,270,200,timeout,e.jpg,,,266340,266339,266115,266115,265799,265999,
刺激提示,canvas.Screen,13_12_3,2023-01-16T05:34:59.095Z,,,b,true,b,270,886,response,e.jpg,b,keypress(f),266889,266885,266339,266340,265999,266599,
フィードバック(0.5秒),canvas.Screen,13_12_4,2023-01-16T05:34:59.344Z,,,b,,,270,200,timeout,e.jpg,,,267138,267138,266566,266890,266599,266799,
トライアル,flow.Sequence,13_12,2023-01-16T05:34:59.344Z,,,b,,,270,2305,completion,e.jpg,,,267138,267138,265171,265171,264833,266799,
空白時間1 (0.5秒),canvas.Screen,13_13_0,2023-01-16T05:34:59.567Z,,,d,,,0,234,timeout,eR.jpg,,,267361,267361,267138,267138,266799,267033,
注視(1秒),canvas.Screen,13_13_1,2023-01-16T05:35:00.289Z,,,d,,,0,733,timeout,eR.jpg,,,268083,268083,267361,267361,267033,267766,
空白時間2 (0.5秒),canvas.Screen,13_13_2,2023-01-16T05:35:00.514Z,,,d,,,0,200,timeout,eR.jpg,,,268309,268309,268083,268083,267766,267966,
刺激提示,canvas.Screen,13_13_3,2023-01-16T05:35:01.130Z,,,d,true,d,0,955,response,eR.jpg,d,keypress(j),268924,268921,268309,268309,267966,268633,
フィードバック(0.5秒),canvas.Screen,13_13_4,2023-01-16T05:35:01.380Z,,,d,,,0,200,timeout,eR.jpg,,,269175,269174,268599,268926,268633,268833,
トライアル,flow.Sequence,13_13,2023-01-16T05:35:01.380Z,,,d,,,0,2375,completion,eR.jpg,,,269175,269174,267138,267138,266799,268833,
空白時間1 (0.5秒),canvas.Screen,13_14_0,2023-01-16T05:35:01.603Z,,,b,,,180,233,timeout,e.jpg,,,269397,269397,269174,269175,268833,269066,
注視(1秒),canvas.Screen,13_14_1,2023-01-16T05:35:02.322Z,,,b,,,180,733,timeout,e.jpg,,,270116,270116,269397,269397,269066,269799,
空白時間2 (0.5秒),canvas.Screen,13_14_2,2023-01-16T05:35:02.547Z,,,b,,,180,200,timeout,e.jpg,,,270341,270341,270116,270116,269799,269999,
刺激提示,canvas.Screen,13_14_3,2023-01-16T05:35:03.345Z,,,b,true,b,180,1137,response,e.jpg,b,keypress(f),271140,271136,270341,270341,269999,270866,
フィードバック(0.5秒),canvas.Screen,13_14_4,2023-01-16T05:35:03.611Z,,,b,,,180,200,timeout,e.jpg,,,271405,271405,270833,271141,270866,271066,
トライアル,flow.Sequence,13_14,2023-01-16T05:35:03.612Z,,,b,,,180,2572,completion,e.jpg,,,271406,271405,269174,269175,268833,271066,
空白時間1 (0.5秒),canvas.Screen,13_15_0,2023-01-16T05:35:03.834Z,,,d,,,180,233,timeout,eR.jpg,,,271629,271628,271405,271406,271066,271299,
注視(1秒),canvas.Screen,13_15_1,2023-01-16T05:35:04.553Z,,,d,,,180,734,timeout,eR.jpg,,,272347,272347,271628,271629,271299,272033,
空白時間2 (0.5秒),canvas.Screen,13_15_2,2023-01-16T05:35:04.778Z,,,d,,,180,200,timeout,eR.jpg,,,272572,272572,272347,272347,272033,272233,
刺激提示,canvas.Screen,13_15_3,2023-01-16T05:35:05.877Z,,,d,true,d,180,1435,response,eR.jpg,d,keypress(j),273671,273668,272572,272573,272233,273399,
フィードバック(0.5秒),canvas.Screen,13_15_4,2023-01-16T05:35:06.145Z,,,d,,,180,200,timeout,eR.jpg,,,273939,273939,273366,273682,273399,273599,
トライアル,flow.Sequence,13_15,2023-01-16T05:35:06.146Z,,,d,,,180,2873,completion,eR.jpg,,,273940,273939,271405,271406,271066,273599,
タスクのセット,flow.Loop,13,2023-01-16T05:35:06.146Z,,,,,,,33506,completion,,,,273940,273939,240770,240771,240433,273599,
休憩,canvas.Screen,14,2023-01-16T05:36:05.843Z,,,,,,,59733,timeout,,,,333637,333636,273939,273940,273599,333332,
休憩終了,html.Page,15,2023-01-16T05:36:08.381Z,,,,,,,2843,form submission,,,,336175,336175,333636,333638,333332,335899,
イントロ2,html.Page,16,2023-01-16T05:36:09.360Z,,,,,,,1255,form submission,,,,337154,337154,335866,336175,335899,336866,
イントロ3,html.Page,17,2023-01-16T05:36:10.360Z,,,,,,,1288,form submission,,,,338154,338154,336833,337155,336866,337866,
イントロ4,html.Page,18,2023-01-16T05:36:10.893Z,,,,,,,822,form submission,,,,338688,338688,337833,338155,337866,338399,
イントロ5,html.Page,19,2023-01-16T05:36:12.826Z,,,,,,,2221,form submission,,,,340620,340620,338366,338688,338399,340333,
できるだけ早く正確に,canvas.Screen,20,2023-01-16T05:36:13.584Z,,,,,,,700,timeout,,,,341378,341378,340299,340621,340333,341033,
空白時間1 (0.5秒),canvas.Screen,21_0_0,2023-01-16T05:36:13.803Z,,,d,,,225,233,timeout,2R.jpg,,,341597,341597,341378,341378,341033,341266,
注視(1秒),canvas.Screen,21_0_1,2023-01-16T05:36:14.514Z,,,d,,,225,700,timeout,2R.jpg,,,342308,342308,341597,341598,341266,341966,
空白時間2 (0.5秒),canvas.Screen,21_0_2,2023-01-16T05:36:14.738Z,,,d,,,225,233,timeout,2R.jpg,,,342532,342532,342308,342308,341966,342199,
刺激提示(練習),canvas.Screen,21_0_3,2023-01-16T05:36:15.672Z,,,d,false,d,225,1263,response,2R.jpg,b,keypress(f),343466,343462,342532,342532,342199,343166,
フィードバック(0.5秒),canvas.Screen,21_0_4,2023-01-16T05:36:15.914Z,,,d,,,225,200,timeout,2R.jpg,,,343708,343708,343133,343467,343166,343366,
トライアル,flow.Sequence,21_0,2023-01-16T05:36:15.914Z,,,d,,,225,2675,completion,2R.jpg,,,343708,343708,341378,341378,341033,343366,
空白時間1 (0.5秒),canvas.Screen,21_1_0,2023-01-16T05:36:16.138Z,,,d,,,90,233,timeout,2R.jpg,,,343933,343933,343708,343708,343366,343599,
注視(1秒),canvas.Screen,21_1_1,2023-01-16T05:36:16.856Z,,,d,,,90,734,timeout,2R.jpg,,,344650,344650,343933,343933,343599,344333,
空白時間2 (0.5秒),canvas.Screen,21_1_2,2023-01-16T05:36:17.081Z,,,d,,,90,200,timeout,2R.jpg,,,344875,344875,344650,344650,344333,344533,
刺激提示(練習),canvas.Screen,21_1_3,2023-01-16T05:36:18.567Z,,,d,true,d,90,1824,response,2R.jpg,d,keypress(j),346362,346357,344875,344876,344533,346066,
フィードバック(0.5秒),canvas.Screen,21_1_4,2023-01-16T05:36:18.810Z,,,d,,,90,200,timeout,2R.jpg,,,346605,346605,346033,346363,346066,346266,
トライアル,flow.Sequence,21_1,2023-01-16T05:36:18.810Z,,,d,,,90,3239,completion,2R.jpg,,,346605,346605,343708,343708,343366,346266,
空白時間1 (0.5秒),canvas.Screen,21_2_0,2023-01-16T05:36:19.042Z,,,b,,,180,233,timeout,2.jpg,,,346836,346835,346605,346605,346266,346499,
注視(1秒),canvas.Screen,21_2_1,2023-01-16T05:36:19.753Z,,,b,,,180,734,timeout,2.jpg,,,347547,347547,346835,346836,346499,347233,
空白時間2 (0.5秒),canvas.Screen,21_2_2,2023-01-16T05:36:19.977Z,,,b,,,180,200,timeout,2.jpg,,,347771,347771,347547,347547,347233,347433,
刺激提示(練習),canvas.Screen,21_2_3,2023-01-16T05:36:20.765Z,,,b,true,b,180,1123,response,2.jpg,b,keypress(f),348559,348556,347771,347771,347433,348299,
フィードバック(0.5秒),canvas.Screen,21_2_4,2023-01-16T05:36:21.043Z,,,b,,,180,200,timeout,2.jpg,,,348837,348837,348266,348560,348299,348499,
トライアル,flow.Sequence,21_2,2023-01-16T05:36:21.043Z,,,b,,,180,2571,completion,2.jpg,,,348838,348837,346605,346605,346266,348499,
空白時間1 (0.5秒),canvas.Screen,21_3_0,2023-01-16T05:36:21.276Z,,,b,,,45,234,timeout,2.jpg,,,349070,349070,348837,348838,348499,348733,
注視(1秒),canvas.Screen,21_3_1,2023-01-16T05:36:21.975Z,,,b,,,45,700,timeout,2.jpg,,,349769,349769,349070,349070,348733,349433,
空白時間2 (0.5秒),canvas.Screen,21_3_2,2023-01-16T05:36:22.203Z,,,b,,,45,233,timeout,2.jpg,,,349997,349997,349769,349769,349433,349666,
刺激提示(練習),canvas.Screen,21_3_3,2023-01-16T05:36:23.001Z,,,b,true,b,45,1126,response,2.jpg,b,keypress(f),350796,350792,349997,349997,349666,350499,
フィードバック(0.5秒),canvas.Screen,21_3_4,2023-01-16T05:36:23.243Z,,,b,,,45,200,timeout,2.jpg,,,351037,351037,350466,350797,350499,350699,
トライアル,flow.Sequence,21_3,2023-01-16T05:36:23.243Z,,,b,,,45,2538,completion,2.jpg,,,351037,351037,348837,348838,348499,350699,
練習試行(2),flow.Loop,21,2023-01-16T05:36:23.243Z,,,,,,,10004,completion,,,,351037,351037,341378,341378,341033,350699,
イントロ6,html.Page,22,2023-01-16T05:36:25.459Z,,,,,,,2554,form submission,,,,353253,353253,351037,351037,350699,352966,
できるだけ早く正確に,canvas.Screen,23,2023-01-16T05:36:26.216Z,,,,,,,700,timeout,,,,354010,354010,352933,353253,352966,353666,
空白時間1 (0.5秒),canvas.Screen,24_0_0,2023-01-16T05:36:26.441Z,,,b,,,315,233,timeout,2.jpg,,,354235,354235,354010,354011,353666,353899,
注視(1秒),canvas.Screen,24_0_1,2023-01-16T05:36:27.154Z,,,b,,,315,734,timeout,2.jpg,,,354948,354948,354235,354235,353899,354633,
空白時間2 (0.5秒),canvas.Screen,24_0_2,2023-01-16T05:36:27.386Z,,,b,,,315,233,timeout,2.jpg,,,355180,355179,354948,354948,354633,354866,
刺激提示,canvas.Screen,24_0_3,2023-01-16T05:36:28.254Z,,,b,true,b,315,1179,response,2.jpg,b,keypress(f),356049,356045,355179,355180,354866,355766,
フィードバック(0.5秒),canvas.Screen,24_0_4,2023-01-16T05:36:28.515Z,,,b,,,315,200,timeout,2.jpg,,,356309,356309,355733,356050,355766,355966,
トライアル,flow.Sequence,24_0,2023-01-16T05:36:28.515Z,,,b,,,315,2643,completion,2.jpg,,,356309,356309,354010,354010,353666,355966,
空白時間1 (0.5秒),canvas.Screen,24_1_0,2023-01-16T05:36:28.728Z,,,d,,,270,233,timeout,2R.jpg,,,356522,356521,356309,356310,355966,356199,
注視(1秒),canvas.Screen,24_1_1,2023-01-16T05:36:29.458Z,,,d,,,270,734,timeout,2R.jpg,,,357253,357253,356521,356522,356199,356933,
空白時間2 (0.5秒),canvas.Screen,24_1_2,2023-01-16T05:36:29.692Z,,,d,,,270,233,timeout,2R.jpg,,,357486,357486,357253,357253,356933,357166,
刺激提示,canvas.Screen,24_1_3,2023-01-16T05:36:30.354Z,,,d,true,d,270,978,response,2R.jpg,d,keypress(j),358148,358144,357486,357486,357166,357866,
フィードバック(0.5秒),canvas.Screen,24_1_4,2023-01-16T05:36:30.611Z,,,d,,,270,200,timeout,2R.jpg,,,358404,358404,357833,358149,357866,358066,
トライアル,flow.Sequence,24_1,2023-01-16T05:36:30.611Z,,,d,,,270,2438,completion,2R.jpg,,,358405,358404,356309,356309,355966,358066,
空白時間1 (0.5秒),canvas.Screen,24_2_0,2023-01-16T05:36:30.844Z,,,b,,,225,233,timeout,2.jpg,,,358638,358638,358404,358405,358066,358299,
注視(1秒),canvas.Screen,24_2_1,2023-01-16T05:36:31.553Z,,,b,,,225,734,timeout,2.jpg,,,359347,359347,358638,358639,358299,359033,
空白時間2 (0.5秒),canvas.Screen,24_2_2,2023-01-16T05:36:31.778Z,,,b,,,225,200,timeout,2.jpg,,,359572,359572,359347,359347,359033,359233,
刺激提示,canvas.Screen,24_2_3,2023-01-16T05:36:32.579Z,,,b,true,b,225,1136,response,2.jpg,b,keypress(f),360373,360369,359572,359573,359233,360066,
フィードバック(0.5秒),canvas.Screen,24_2_4,2023-01-16T05:36:32.812Z,,,b,,,225,200,timeout,2.jpg,,,360606,360606,360033,360375,360066,360266,
トライアル,flow.Sequence,24_2,2023-01-16T05:36:32.812Z,,,b,,,225,2540,completion,2.jpg,,,360606,360606,358404,358405,358066,360266,
空白時間1 (0.5秒),canvas.Screen,24_3_0,2023-01-16T05:36:33.034Z,,,b,,,180,233,timeout,2.jpg,,,360828,360828,360606,360606,360266,360499,
注視(1秒),canvas.Screen,24_3_1,2023-01-16T05:36:33.752Z,,,b,,,180,734,timeout,2.jpg,,,361546,361546,360828,360829,360499,361233,
空白時間2 (0.5秒),canvas.Screen,24_3_2,2023-01-16T05:36:33.977Z,,,b,,,180,200,timeout,2.jpg,,,361771,361771,361546,361547,361233,361433,
刺激提示,canvas.Screen,24_3_3,2023-01-16T05:36:34.825Z,,,b,true,b,180,1183,response,2.jpg,b,keypress(f),362619,362616,361771,361771,361433,362366,
フィードバック(0.5秒),canvas.Screen,24_3_4,2023-01-16T05:36:35.111Z,,,b,,,180,200,timeout,2.jpg,,,362906,362906,362333,362622,362366,362566,
トライアル,flow.Sequence,24_3,2023-01-16T05:36:35.112Z,,,b,,,180,2640,completion,2.jpg,,,362906,362906,360606,360606,360266,362566,
空白時間1 (0.5秒),canvas.Screen,24_4_0,2023-01-16T05:36:35.336Z,,,d,,,225,233,timeout,2R.jpg,,,363130,363130,362906,362906,362566,362799,
注視(1秒),canvas.Screen,24_4_1,2023-01-16T05:36:36.058Z,,,d,,,225,734,timeout,2R.jpg,,,363852,363852,363130,363130,362799,363533,
空白時間2 (0.5秒),canvas.Screen,24_4_2,2023-01-16T05:36:36.281Z,,,d,,,225,233,timeout,2R.jpg,,,364075,364075,363852,363853,363533,363766,
刺激提示,canvas.Screen,24_4_3,2023-01-16T05:36:36.976Z,,,d,true,d,225,1002,response,2R.jpg,d,keypress(j),364771,364768,364075,364075,363766,364466,
フィードバック(0.5秒),canvas.Screen,24_4_4,2023-01-16T05:36:37.207Z,,,d,,,225,200,timeout,2R.jpg,,,365001,365001,364433,364772,364466,364666,
トライアル,flow.Sequence,24_4,2023-01-16T05:36:37.207Z,,,d,,,225,2435,completion,2R.jpg,,,365002,365001,362906,362906,362566,364666,
空白時間1 (0.5秒),canvas.Screen,24_5_0,2023-01-16T05:36:37.433Z,,,b,,,270,233,timeout,2.jpg,,,365227,365227,365001,365002,364666,364899,
注視(1秒),canvas.Screen,24_5_1,2023-01-16T05:36:38.153Z,,,b,,,270,734,timeout,2.jpg,,,365947,365947,365227,365227,364899,365633,
空白時間2 (0.5秒),canvas.Screen,24_5_2,2023-01-16T05:36:38.379Z,,,b,,,270,200,timeout,2.jpg,,,366173,366173,365947,365947,365633,365833,
刺激提示,canvas.Screen,24_5_3,2023-01-16T05:36:39.171Z,,,b,true,b,270,1129,response,2.jpg,b,keypress(f),366965,366962,366173,366173,365833,366666,
フィードバック(0.5秒),canvas.Screen,24_5_4,2023-01-16T05:36:39.407Z,,,b,,,270,200,timeout,2.jpg,,,367201,367201,366633,366967,366666,366866,
トライアル,flow.Sequence,24_5,2023-01-16T05:36:39.407Z,,,b,,,270,2535,completion,2.jpg,,,367201,367201,365001,365002,364666,366866,
空白時間1 (0.5秒),canvas.Screen,24_6_0,2023-01-16T05:36:39.635Z,,,b,,,45,233,timeout,2.jpg,,,367429,367429,367201,367201,366866,367099,
注視(1秒),canvas.Screen,24_6_1,2023-01-16T05:36:40.343Z,,,b,,,45,700,timeout,2.jpg,,,368137,368137,367429,367430,367099,367799,
空白時間2 (0.5秒),canvas.Screen,24_6_2,2023-01-16T05:36:40.571Z,,,b,,,45,234,timeout,2.jpg,,,368365,368365,368137,368137,367799,368033,
刺激提示,canvas.Screen,24_6_3,2023-01-16T05:36:41.149Z,,,b,true,b,45,906,response,2.jpg,b,keypress(f),368943,368939,368365,368366,368033,368633,
フィードバック(0.5秒),canvas.Screen,24_6_4,2023-01-16T05:36:41.393Z,,,b,,,45,233,timeout,2.jpg,,,369187,369187,368599,368945,368633,368866,
トライアル,flow.Sequence,24_6,2023-01-16T05:36:41.393Z,,,b,,,45,2321,completion,2.jpg,,,369187,369187,367201,367201,366866,368866,
空白時間1 (0.5秒),canvas.Screen,24_7_0,2023-01-16T05:36:41.618Z,,,b,,,135,200,timeout,2.jpg,,,369412,369412,369187,369187,368866,369066,
注視(1秒),canvas.Screen,24_7_1,2023-01-16T05:36:42.315Z,,,b,,,135,733,timeout,2.jpg,,,370109,370109,369412,369412,369066,369799,
空白時間2 (0.5秒),canvas.Screen,24_7_2,2023-01-16T05:36:42.544Z,,,b,,,135,200,timeout,2.jpg,,,370339,370338,370109,370110,369799,369999,
刺激提示,canvas.Screen,24_7_3,2023-01-16T05:36:43.171Z,,,b,true,b,135,962,response,2.jpg,b,keypress(f),370965,370961,370338,370339,369999,370666,
フィードバック(0.5秒),canvas.Screen,24_7_4,2023-01-16T05:36:43.408Z,,,b,,,135,200,timeout,2.jpg,,,371203,371203,370633,370966,370666,370866,
トライアル,flow.Sequence,24_7,2023-01-16T05:36:43.409Z,,,b,,,135,2337,completion,2.jpg,,,371203,371203,369187,369187,368866,370866,
空白時間1 (0.5秒),canvas.Screen,24_8_0,2023-01-16T05:36:43.633Z,,,b,,,90,233,timeout,2.jpg,,,371427,371427,371203,371203,370866,371099,
注視(1秒),canvas.Screen,24_8_1,2023-01-16T05:36:44.346Z,,,b,,,90,700,timeout,2.jpg,,,372140,372140,371427,371427,371099,371799,
空白時間2 (0.5秒),canvas.Screen,24_8_2,2023-01-16T05:36:44.568Z,,,b,,,90,234,timeout,2.jpg,,,372362,372362,372140,372141,371799,372033,
刺激提示,canvas.Screen,24_8_3,2023-01-16T05:36:45.111Z,,,b,true,b,90,869,response,2.jpg,b,keypress(f),372905,372902,372362,372362,372033,372599,
フィードバック(0.5秒),canvas.Screen,24_8_4,2023-01-16T05:36:45.345Z,,,b,,,90,234,timeout,2.jpg,,,373140,373139,372566,372906,372599,372833,
トライアル,flow.Sequence,24_8,2023-01-16T05:36:45.346Z,,,b,,,90,2273,completion,2.jpg,,,373140,373139,371203,371203,370866,372833,
空白時間1 (0.5秒),canvas.Screen,24_9_0,2023-01-16T05:36:45.578Z,,,d,,,0,200,timeout,2R.jpg,,,373372,373372,373139,373140,372833,373033,
注視(1秒),canvas.Screen,24_9_1,2023-01-16T05:36:46.290Z,,,d,,,0,733,timeout,2R.jpg,,,374085,374084,373372,373372,373033,373766,
空白時間2 (0.5秒),canvas.Screen,24_9_2,2023-01-16T05:36:46.515Z,,,d,,,0,200,timeout,2R.jpg,,,374310,374309,374084,374085,373766,373966,
刺激提示,canvas.Screen,24_9_3,2023-01-16T05:36:47.101Z,,,d,true,d,0,926,response,2R.jpg,d,keypress(j),374894,374892,374309,374310,373966,374599,
フィードバック(0.5秒),canvas.Screen,24_9_4,2023-01-16T05:36:47.347Z,,,d,,,0,234,timeout,2R.jpg,,,375141,375141,374566,374895,374599,374833,
トライアル,flow.Sequence,24_9,2023-01-16T05:36:47.347Z,,,d,,,0,2308,completion,2R.jpg,,,375141,375141,373139,373140,372833,374833,
空白時間1 (0.5秒),canvas.Screen,24_10_0,2023-01-16T05:36:47.579Z,,,b,,,0,200,timeout,2.jpg,,,375373,375373,375141,375141,374833,375033,
注視(1秒),canvas.Screen,24_10_1,2023-01-16T05:36:48.288Z,,,b,,,0,733,timeout,2.jpg,,,376082,376082,375373,375373,375033,375766,
空白時間2 (0.5秒),canvas.Screen,24_10_2,2023-01-16T05:36:48.511Z,,,b,,,0,200,timeout,2.jpg,,,376306,376306,376082,376083,375766,375966,
刺激提示,canvas.Screen,24_10_3,2023-01-16T05:36:49.186Z,,,b,false,b,0,1011,response,2.jpg,d,keypress(j),376981,376977,376306,376306,375966,376699,
フィードバック(0.5秒),canvas.Screen,24_10_4,2023-01-16T05:36:49.442Z,,,b,,,0,200,timeout,2.jpg,,,377236,377236,376666,376981,376699,376899,
トライアル,flow.Sequence,24_10,2023-01-16T05:36:49.442Z,,,b,,,0,2403,completion,2.jpg,,,377236,377236,375141,375141,374833,376899,
空白時間1 (0.5秒),canvas.Screen,24_11_0,2023-01-16T05:36:49.665Z,,,d,,,90,267,timeout,2R.jpg,,,377460,377460,377236,377236,376899,377166,
注視(1秒),canvas.Screen,24_11_1,2023-01-16T05:36:50.419Z,,,d,,,90,700,timeout,2R.jpg,,,378213,378213,377460,377460,377166,377866,
空白時間2 (0.5秒),canvas.Screen,24_11_2,2023-01-16T05:36:50.633Z,,,d,,,90,233,timeout,2R.jpg,,,378427,378427,378213,378213,377866,378099,
刺激提示,canvas.Screen,24_11_3,2023-01-16T05:36:51.341Z,,,d,true,d,90,1032,response,2R.jpg,d,keypress(j),379135,379131,378427,378427,378099,378833,
フィードバック(0.5秒),canvas.Screen,24_11_4,2023-01-16T05:36:51.577Z,,,d,,,90,200,timeout,2R.jpg,,,379371,379371,378799,379136,378833,379033,
トライアル,flow.Sequence,24_11,2023-01-16T05:36:51.577Z,,,d,,,90,2472,completion,2R.jpg,,,379372,379371,377236,377236,376899,379033,
空白時間1 (0.5秒),canvas.Screen,24_12_0,2023-01-16T05:36:51.803Z,,,d,,,135,233,timeout,2R.jpg,,,379597,379597,379371,379372,379033,379266,
注視(1秒),canvas.Screen,24_12_1,2023-01-16T05:36:52.515Z,,,d,,,135,733,timeout,2R.jpg,,,380310,380309,379597,379597,379266,379999,
空白時間2 (0.5秒),canvas.Screen,24_12_2,2023-01-16T05:36:52.745Z,,,d,,,135,234,timeout,2R.jpg,,,380540,380540,380309,380310,379999,380233,
刺激提示,canvas.Screen,24_12_3,2023-01-16T05:36:54.160Z,,,d,true,d,135,1719,response,2R.jpg,d,keypress(j),381955,381952,380540,380540,380233,381666,
フィードバック(0.5秒),canvas.Screen,24_12_4,2023-01-16T05:36:54.411Z,,,d,,,135,200,timeout,2R.jpg,,,382205,382205,381633,381965,381666,381866,
トライアル,flow.Sequence,24_12,2023-01-16T05:36:54.411Z,,,d,,,135,3172,completion,2R.jpg,,,382205,382205,379371,379372,379033,381866,
空白時間1 (0.5秒),canvas.Screen,24_13_0,2023-01-16T05:36:54.643Z,,,d,,,45,233,timeout,2R.jpg,,,382437,382437,382205,382205,381866,382099,
注視(1秒),canvas.Screen,24_13_1,2023-01-16T05:36:55.346Z,,,d,,,45,734,timeout,2R.jpg,,,383139,383139,382437,382437,382099,382833,
空白時間2 (0.5秒),canvas.Screen,24_13_2,2023-01-16T05:36:55.578Z,,,d,,,45,233,timeout,2R.jpg,,,383372,383371,383139,383139,382833,383066,
刺激提示,canvas.Screen,24_13_3,2023-01-16T05:36:56.267Z,,,d,true,d,45,992,response,2R.jpg,d,keypress(j),384061,384058,383371,383372,383066,383766,
フィードバック(0.5秒),canvas.Screen,24_13_4,2023-01-16T05:36:56.512Z,,,d,,,45,233,timeout,2R.jpg,,,384306,384306,383733,384062,383766,383999,
トライアル,flow.Sequence,24_13,2023-01-16T05:36:56.512Z,,,d,,,45,2440,completion,2R.jpg,,,384306,384306,382205,382205,381866,383999,
空白時間1 (0.5秒),canvas.Screen,24_14_0,2023-01-16T05:36:56.746Z,,,d,,,180,200,timeout,2R.jpg,,,384540,384540,384306,384307,383999,384199,
注視(1秒),canvas.Screen,24_14_1,2023-01-16T05:36:57.455Z,,,d,,,180,734,timeout,2R.jpg,,,385250,385250,384540,384540,384199,384933,
空白時間2 (0.5秒),canvas.Screen,24_14_2,2023-01-16T05:36:57.681Z,,,d,,,180,200,timeout,2R.jpg,,,385475,385475,385250,385250,384933,385133,
刺激提示,canvas.Screen,24_14_3,2023-01-16T05:36:58.514Z,,,d,true,d,180,1171,response,2R.jpg,d,keypress(j),386308,386304,385475,385476,385133,386033,
フィードバック(0.5秒),canvas.Screen,24_14_4,2023-01-16T05:36:58.776Z,,,d,,,180,200,timeout,2R.jpg,,,386570,386570,385966,386309,386033,386233,
トライアル,flow.Sequence,24_14,2023-01-16T05:36:58.776Z,,,d,,,180,2571,completion,2R.jpg,,,386570,386570,384306,384306,383999,386233,
空白時間1 (0.5秒),canvas.Screen,24_15_0,2023-01-16T05:36:59.010Z,,,d,,,315,233,timeout,2R.jpg,,,386804,386804,386570,386570,386233,386466,
注視(1秒),canvas.Screen,24_15_1,2023-01-16T05:36:59.721Z,,,d,,,315,733,timeout,2R.jpg,,,387516,387516,386804,386804,386466,387199,
空白時間2 (0.5秒),canvas.Screen,24_15_2,2023-01-16T05:36:59.948Z,,,d,,,315,234,timeout,2R.jpg,,,387742,387742,387516,387516,387199,387433,
刺激提示,canvas.Screen,24_15_3,2023-01-16T05:37:00.642Z,,,d,true,d,315,999,response,2R.jpg,d,keypress(j),388436,388432,387742,387742,387433,388133,
フィードバック(0.5秒),canvas.Screen,24_15_4,2023-01-16T05:37:00.881Z,,,d,,,315,200,timeout,2R.jpg,,,388675,388675,388099,388437,388133,388333,
トライアル,flow.Sequence,24_15,2023-01-16T05:37:00.882Z,,,d,,,315,2442,completion,2R.jpg,,,388676,388675,386570,386570,386233,388333,
タスクのセット,flow.Loop,24,2023-01-16T05:37:00.882Z,,,,,,,35009,completion,,,,388676,388675,354010,354010,353666,388333,
空白時間1 (0.5秒),canvas.Screen,25_0_0,2023-01-16T05:37:01.111Z,,,d,,,180,233,timeout,2R.jpg,,,388905,388905,388675,388676,388333,388566,
注視(1秒),canvas.Screen,25_0_1,2023-01-16T05:37:01.827Z,,,d,,,180,733,timeout,2R.jpg,,,389621,389621,388905,388905,388566,389299,
空白時間2 (0.5秒),canvas.Screen,25_0_2,2023-01-16T05:37:02.051Z,,,d,,,180,200,timeout,2R.jpg,,,389845,389845,389621,389621,389299,389499,
刺激提示,canvas.Screen,25_0_3,2023-01-16T05:37:03.782Z,,,d,true,d,180,2074,response,2R.jpg,d,keypress(j),391576,391573,389845,389845,389499,391266,
フィードバック(0.5秒),canvas.Screen,25_0_4,2023-01-16T05:37:04.010Z,,,d,,,180,200,timeout,2R.jpg,,,391804,391803,391233,391577,391266,391466,
トライアル,flow.Sequence,25_0,2023-01-16T05:37:04.010Z,,,d,,,180,3470,completion,2R.jpg,,,391804,391803,388675,388676,388333,391466,
空白時間1 (0.5秒),canvas.Screen,25_1_0,2023-01-16T05:37:04.234Z,,,b,,,135,233,timeout,2.jpg,,,392028,392028,391803,391804,391466,391699,
注視(1秒),canvas.Screen,25_1_1,2023-01-16T05:37:04.952Z,,,b,,,135,700,timeout,2.jpg,,,392747,392747,392028,392028,391699,392399,
空白時間2 (0.5秒),canvas.Screen,25_1_2,2023-01-16T05:37:05.179Z,,,b,,,135,234,timeout,2.jpg,,,392974,392973,392747,392747,392399,392633,
刺激提示,canvas.Screen,25_1_3,2023-01-16T05:37:05.818Z,,,b,true,b,135,977,response,2.jpg,b,keypress(f),393612,393610,392973,392974,392633,393333,
フィードバック(0.5秒),canvas.Screen,25_1_4,2023-01-16T05:37:06.073Z,,,b,,,135,200,timeout,2.jpg,,,393868,393867,393299,393613,393333,393533,
トライアル,flow.Sequence,25_1,2023-01-16T05:37:06.073Z,,,b,,,135,2401,completion,2.jpg,,,393868,393867,391803,391804,391466,393533,
空白時間1 (0.5秒),canvas.Screen,25_2_0,2023-01-16T05:37:06.308Z,,,b,,,225,233,timeout,2.jpg,,,394102,394102,393867,393868,393533,393766,
注視(1秒),canvas.Screen,25_2_1,2023-01-16T05:37:07.027Z,,,b,,,225,733,timeout,2.jpg,,,394821,394821,394102,394102,393766,394499,
空白時間2 (0.5秒),canvas.Screen,25_2_2,2023-01-16T05:37:07.251Z,,,b,,,225,200,timeout,2.jpg,,,395045,395045,394821,394821,394499,394699,
刺激提示,canvas.Screen,25_2_3,2023-01-16T05:37:08.410Z,,,b,true,b,225,1502,response,2.jpg,b,keypress(f),396204,396201,395045,395045,394699,395933,
フィードバック(0.5秒),canvas.Screen,25_2_4,2023-01-16T05:37:08.674Z,,,b,,,225,233,timeout,2.jpg,,,396468,396468,395899,396215,395933,396166,
トライアル,flow.Sequence,25_2,2023-01-16T05:37:08.674Z,,,b,,,225,2935,completion,2.jpg,,,396468,396468,393867,393868,393533,396166,
空白時間1 (0.5秒),canvas.Screen,25_3_0,2023-01-16T05:37:08.915Z,,,d,,,225,200,timeout,2R.jpg,,,396709,396709,396468,396468,396166,396366,
注視(1秒),canvas.Screen,25_3_1,2023-01-16T05:37:09.626Z,,,d,,,225,733,timeout,2R.jpg,,,397420,397419,396709,396709,396366,397099,
空白時間2 (0.5秒),canvas.Screen,25_3_2,2023-01-16T05:37:09.850Z,,,d,,,225,200,timeout,2R.jpg,,,397644,397644,397419,397420,397099,397299,
刺激提示,canvas.Screen,25_3_3,2023-01-16T05:37:11.122Z,,,d,true,d,225,1614,response,2R.jpg,d,keypress(j),398916,398913,397644,397644,397299,398633,
フィードバック(0.5秒),canvas.Screen,25_3_4,2023-01-16T05:37:11.378Z,,,d,,,225,233,timeout,2R.jpg,,,399172,399172,398599,398917,398633,398866,
トライアル,flow.Sequence,25_3,2023-01-16T05:37:11.378Z,,,d,,,225,3006,completion,2R.jpg,,,399172,399172,396468,396468,396166,398866,
空白時間1 (0.5秒),canvas.Screen,25_4_0,2023-01-16T05:37:11.610Z,,,d,,,90,200,timeout,2R.jpg,,,399405,399405,399172,399172,398866,399066,
注視(1秒),canvas.Screen,25_4_1,2023-01-16T05:37:12.321Z,,,d,,,90,733,timeout,2R.jpg,,,400115,400114,399405,399405,399066,399799,
空白時間2 (0.5秒),canvas.Screen,25_4_2,2023-01-16T05:37:12.546Z,,,d,,,90,234,timeout,2R.jpg,,,400341,400341,400114,400115,399799,400033,
刺激提示,canvas.Screen,25_4_3,2023-01-16T05:37:13.125Z,,,d,true,d,90,882,response,2R.jpg,d,keypress(j),400918,400915,400341,400341,400033,400633,
フィードバック(0.5秒),canvas.Screen,25_4_4,2023-01-16T05:37:13.375Z,,,d,,,90,200,timeout,2R.jpg,,,401169,401169,400599,400920,400633,400833,
トライアル,flow.Sequence,25_4,2023-01-16T05:37:13.376Z,,,d,,,90,2303,completion,2R.jpg,,,401169,401169,399172,399172,398866,400833,
空白時間1 (0.5秒),canvas.Screen,25_5_0,2023-01-16T05:37:13.603Z,,,b,,,270,233,timeout,2.jpg,,,401398,401398,401169,401170,400833,401066,
注視(1秒),canvas.Screen,25_5_1,2023-01-16T05:37:14.321Z,,,b,,,270,733,timeout,2.jpg,,,402115,402115,401398,401398,401066,401799,
空白時間2 (0.5秒),canvas.Screen,25_5_2,2023-01-16T05:37:14.547Z,,,b,,,270,200,timeout,2.jpg,,,402341,402341,402115,402116,401799,401999,
刺激提示,canvas.Screen,25_5_3,2023-01-16T05:37:15.133Z,,,b,true,b,270,924,response,2.jpg,b,keypress(f),402927,402923,402341,402342,401999,402633,
フィードバック(0.5秒),canvas.Screen,25_5_4,2023-01-16T05:37:15.377Z,,,b,,,270,233,timeout,2.jpg,,,403172,403171,402599,402927,402633,402866,
トライアル,flow.Sequence,25_5,2023-01-16T05:37:15.377Z,,,b,,,270,2338,completion,2.jpg,,,403172,403171,401169,401170,400833,402866,
空白時間1 (0.5秒),canvas.Screen,25_6_0,2023-01-16T05:37:15.611Z,,,b,,,90,200,timeout,2.jpg,,,403405,403405,403171,403172,402866,403066,
注視(1秒),canvas.Screen,25_6_1,2023-01-16T05:37:16.312Z,,,b,,,90,733,timeout,2.jpg,,,404107,404106,403405,403406,403066,403799,
空白時間2 (0.5秒),canvas.Screen,25_6_2,2023-01-16T05:37:16.546Z,,,b,,,90,200,timeout,2.jpg,,,404341,404341,404106,404107,403799,403999,
刺激提示,canvas.Screen,25_6_3,2023-01-16T05:37:17.077Z,,,b,true,b,90,868,response,2.jpg,b,keypress(f),404870,404867,404341,404341,403999,404599,
フィードバック(0.5秒),canvas.Screen,25_6_4,2023-01-16T05:37:17.344Z,,,b,,,90,200,timeout,2.jpg,,,405138,405138,404566,404872,404599,404799,
トライアル,flow.Sequence,25_6,2023-01-16T05:37:17.344Z,,,b,,,90,2272,completion,2.jpg,,,405138,405138,403171,403172,402866,404799,
空白時間1 (0.5秒),canvas.Screen,25_7_0,2023-01-16T05:37:17.578Z,,,b,,,315,234,timeout,2.jpg,,,405373,405373,405138,405138,404799,405033,
注視(1秒),canvas.Screen,25_7_1,2023-01-16T05:37:18.291Z,,,b,,,315,733,timeout,2.jpg,,,406085,406085,405373,405373,405033,405766,
空白時間2 (0.5秒),canvas.Screen,25_7_2,2023-01-16T05:37:18.514Z,,,b,,,315,200,timeout,2.jpg,,,406308,406308,406085,406085,405766,405966,
刺激提示,canvas.Screen,25_7_3,2023-01-16T05:37:19.042Z,,,b,true,b,315,867,response,2.jpg,b,keypress(f),406837,406833,406308,406308,405966,406566,
フィードバック(0.5秒),canvas.Screen,25_7_4,2023-01-16T05:37:19.312Z,,,b,,,315,233,timeout,2.jpg,,,407106,407106,406533,406838,406566,406799,
トライアル,flow.Sequence,25_7,2023-01-16T05:37:19.312Z,,,b,,,315,2307,completion,2.jpg,,,407106,407106,405138,405138,404799,406799,
空白時間1 (0.5秒),canvas.Screen,25_8_0,2023-01-16T05:37:19.546Z,,,d,,,45,200,timeout,2R.jpg,,,407341,407341,407106,407106,406799,406999,
注視(1秒),canvas.Screen,25_8_1,2023-01-16T05:37:20.257Z,,,d,,,45,734,timeout,2R.jpg,,,408051,408050,407341,407341,406999,407733,
空白時間2 (0.5秒),canvas.Screen,25_8_2,2023-01-16T05:37:20.481Z,,,d,,,45,200,timeout,2R.jpg,,,408276,408275,408050,408051,407733,407933,
刺激提示,canvas.Screen,25_8_3,2023-01-16T05:37:21.041Z,,,d,true,d,45,899,response,2R.jpg,d,keypress(j),408836,408832,408275,408276,407933,408566,
フィードバック(0.5秒),canvas.Screen,25_8_4,2023-01-16T05:37:21.314Z,,,d,,,45,200,timeout,2R.jpg,,,409108,409108,408533,408837,408566,408766,
トライアル,flow.Sequence,25_8,2023-01-16T05:37:21.314Z,,,d,,,45,2309,completion,2R.jpg,,,409108,409108,407106,407106,406799,408766,
空白時間1 (0.5秒),canvas.Screen,25_9_0,2023-01-16T05:37:21.531Z,,,b,,,45,233,timeout,2.jpg,,,409325,409325,409108,409108,408766,408999,
注視(1秒),canvas.Screen,25_9_1,2023-01-16T05:37:22.256Z,,,b,,,45,734,timeout,2.jpg,,,410051,410050,409325,409325,408999,409733,
空白時間2 (0.5秒),canvas.Screen,25_9_2,2023-01-16T05:37:22.481Z,,,b,,,45,200,timeout,2.jpg,,,410276,410276,410050,410051,409733,409933,
刺激提示,canvas.Screen,25_9_3,2023-01-16T05:37:23.046Z,,,b,true,b,45,904,response,2.jpg,b,keypress(f),410841,410837,410276,410276,409933,410533,
フィードバック(0.5秒),canvas.Screen,25_9_4,2023-01-16T05:37:23.282Z,,,b,,,45,200,timeout,2.jpg,,,411076,411076,410499,410842,410533,410733,
トライアル,flow.Sequence,25_9,2023-01-16T05:37:23.282Z,,,b,,,45,2310,completion,2.jpg,,,411076,411076,409108,409108,408766,410733,
空白時間1 (0.5秒),canvas.Screen,25_10_0,2023-01-16T05:37:23.514Z,,,d,,,135,233,timeout,2R.jpg,,,411308,411308,411076,411076,410733,410966,
注視(1秒),canvas.Screen,25_10_1,2023-01-16T05:37:24.225Z,,,d,,,135,733,timeout,2R.jpg,,,412019,412019,411308,411308,410966,411699,
空白時間2 (0.5秒),canvas.Screen,25_10_2,2023-01-16T05:37:24.459Z,,,d,,,135,234,timeout,2R.jpg,,,412253,412253,412019,412020,411699,411933,
刺激提示,canvas.Screen,25_10_3,2023-01-16T05:37:25.080Z,,,d,true,d,135,937,response,2R.jpg,d,keypress(j),412874,412870,412253,412253,411933,412599,
フィードバック(0.5秒),canvas.Screen,25_10_4,2023-01-16T05:37:25.348Z,,,d,,,135,200,timeout,2R.jpg,,,413143,413143,412566,412875,412599,412799,
トライアル,flow.Sequence,25_10,2023-01-16T05:37:25.348Z,,,d,,,135,2410,completion,2R.jpg,,,413143,413143,411076,411076,410733,412799,
空白時間1 (0.5秒),canvas.Screen,25_11_0,2023-01-16T05:37:25.571Z,,,d,,,315,234,timeout,2R.jpg,,,413365,413365,413143,413143,412799,413033,
注視(1秒),canvas.Screen,25_11_1,2023-01-16T05:37:26.287Z,,,d,,,315,733,timeout,2R.jpg,,,414082,414082,413365,413366,413033,413766,
空白時間2 (0.5秒),canvas.Screen,25_11_2,2023-01-16T05:37:26.513Z,,,d,,,315,200,timeout,2R.jpg,,,414307,414307,414082,414082,413766,413966,
刺激提示,canvas.Screen,25_11_3,2023-01-16T05:37:27.102Z,,,d,true,d,315,927,response,2R.jpg,d,keypress(j),414897,414893,414307,414307,413966,414599,
フィードバック(0.5秒),canvas.Screen,25_11_4,2023-01-16T05:37:27.345Z,,,d,,,315,200,timeout,2R.jpg,,,415140,415140,414566,414898,414599,414799,
トライアル,flow.Sequence,25_11,2023-01-16T05:37:27.346Z,,,d,,,315,2341,completion,2R.jpg,,,415140,415140,413143,413143,412799,414799,
空白時間1 (0.5秒),canvas.Screen,25_12_0,2023-01-16T05:37:27.569Z,,,d,,,270,234,timeout,2R.jpg,,,415364,415364,415140,415141,414799,415033,
注視(1秒),canvas.Screen,25_12_1,2023-01-16T05:37:28.290Z,,,d,,,270,733,timeout,2R.jpg,,,416084,416084,415364,415364,415033,415766,
空白時間2 (0.5秒),canvas.Screen,25_12_2,2023-01-16T05:37:28.514Z,,,d,,,270,200,timeout,2R.jpg,,,416308,416308,416084,416084,415766,415966,
刺激提示,canvas.Screen,25_12_3,2023-01-16T05:37:29.028Z,,,d,true,d,270,853,response,2R.jpg,d,keypress(j),416822,416819,416308,416308,415966,416533,
フィードバック(0.5秒),canvas.Screen,25_12_4,2023-01-16T05:37:29.275Z,,,d,,,270,200,timeout,2R.jpg,,,417069,417069,416499,416824,416533,416733,
トライアル,flow.Sequence,25_12,2023-01-16T05:37:29.275Z,,,d,,,270,2270,completion,2R.jpg,,,417069,417069,415140,415140,414799,416733,
空白時間1 (0.5秒),canvas.Screen,25_13_0,2023-01-16T05:37:29.499Z,,,b,,,180,233,timeout,2.jpg,,,417293,417293,417069,417070,416733,416966,
注視(1秒),canvas.Screen,25_13_1,2023-01-16T05:37:30.225Z,,,b,,,180,733,timeout,2.jpg,,,418019,418019,417293,417293,416966,417699,
空白時間2 (0.5秒),canvas.Screen,25_13_2,2023-01-16T05:37:30.449Z,,,b,,,180,200,timeout,2.jpg,,,418243,418243,418019,418019,417699,417899,
刺激提示,canvas.Screen,25_13_3,2023-01-16T05:37:31.149Z,,,b,true,b,180,1041,response,2.jpg,b,keypress(f),418944,418940,418243,418243,417899,418633,
フィードバック(0.5秒),canvas.Screen,25_13_4,2023-01-16T05:37:31.379Z,,,b,,,180,200,timeout,2.jpg,,,419173,419173,418599,418945,418633,418833,
トライアル,flow.Sequence,25_13,2023-01-16T05:37:31.379Z,,,b,,,180,2440,completion,2.jpg,,,419173,419173,417069,417069,416733,418833,
空白時間1 (0.5秒),canvas.Screen,25_14_0,2023-01-16T05:37:31.609Z,,,b,,,0,233,timeout,2.jpg,,,419404,419404,419173,419173,418833,419066,
注視(1秒),canvas.Screen,25_14_1,2023-01-16T05:37:32.316Z,,,b,,,0,733,timeout,2.jpg,,,420110,420110,419404,419404,419066,419799,
空白時間2 (0.5秒),canvas.Screen,25_14_2,2023-01-16T05:37:32.547Z,,,b,,,0,200,timeout,2.jpg,,,420340,420340,420110,420110,419799,419999,
刺激提示,canvas.Screen,25_14_3,2023-01-16T05:37:33.112Z,,,b,false,b,0,903,response,2.jpg,d,keypress(j),420906,420902,420340,420341,419999,420599,
フィードバック(0.5秒),canvas.Screen,25_14_4,2023-01-16T05:37:33.345Z,,,b,,,0,234,timeout,2.jpg,,,421140,421140,420566,420907,420599,420833,
トライアル,flow.Sequence,25_14,2023-01-16T05:37:33.345Z,,,b,,,0,2307,completion,2.jpg,,,421140,421140,419173,419173,418833,420833,
空白時間1 (0.5秒),canvas.Screen,25_15_0,2023-01-16T05:37:33.580Z,,,d,,,0,200,timeout,2R.jpg,,,421374,421374,421140,421140,420833,421033,
注視(1秒),canvas.Screen,25_15_1,2023-01-16T05:37:34.290Z,,,d,,,0,733,timeout,2R.jpg,,,422085,422085,421374,421374,421033,421766,
空白時間2 (0.5秒),canvas.Screen,25_15_2,2023-01-16T05:37:34.514Z,,,d,,,0,200,timeout,2R.jpg,,,422308,422308,422085,422085,421766,421966,
刺激提示,canvas.Screen,25_15_3,2023-01-16T05:37:35.220Z,,,d,true,d,0,1044,response,2R.jpg,d,keypress(j),423014,423010,422308,422309,421966,422733,
フィードバック(0.5秒),canvas.Screen,25_15_4,2023-01-16T05:37:35.473Z,,,d,,,0,200,timeout,2R.jpg,,,423268,423268,422699,423016,422733,422933,
トライアル,flow.Sequence,25_15,2023-01-16T05:37:35.473Z,,,d,,,0,2435,completion,2R.jpg,,,423268,423268,421140,421140,420833,422933,
タスクのセット,flow.Loop,25,2023-01-16T05:37:35.474Z,,,,,,,34935,completion,,,,423268,423268,388675,388676,388333,422933,
空白時間1 (0.5秒),canvas.Screen,26_0_0,2023-01-16T05:37:35.700Z,,,d,,,270,233,timeout,2R.jpg,,,423495,423495,423268,423268,422933,423166,
注視(1秒),canvas.Screen,26_0_1,2023-01-16T05:37:36.410Z,,,d,,,270,733,timeout,2R.jpg,,,424204,424204,423495,423495,423166,423899,
