sender,sender_type,sender_id,timestamp,meta,,answer,correct,correctResponse,deg,duration,ended_on,image,response,response_action,time_commit,time_end,time_render,time_run,time_show,time_switch,url
イントロ1,html.Page,0,2023-01-05T04:27:57.235Z,"{""labjs_version"":""20.2.4"",""labjs_build"":{""flavor"":""development"",""commit"":""f5b4a49f956347addd546a832a3327688c2c0fef""},""location"":""https://labjs.felixhenninger.com/api/labjs_preview/index.html"",""userAgent"":""Mozilla/5.0 (Windows NT 10.0; Win64; x64) AppleWebKit/537.36 (KHTML, like Gecko) Chrome/108.0.0.0 Safari/537.36"",""platform"":""Win32"",""language"":""ja"",""locale"":""ja"",""timeZone"":""Etc/GMT-9"",""timezoneOffset"":-540,""screen_width"":1536,""screen_height"":864,""scroll_width"":988,""scroll_height"":702,""window_innerWidth"":988,""window_innerHeight"":750,""devicePixelRatio"":1.25}",,,,,,45038.81200000596,form submission,,,,46777.5,46776.90000000596,1571.526,1879.4000000059605,1738.088,46632.764,{}
イントロ2,html.Page,1,2023-01-05T04:28:10.956Z,,,,,,,13865.235999999997,form submission,,,,60498.40000000596,60498,46615.306,46777.80000001192,46632.764,60369.613,
イントロ3,html.Page,2,2023-01-05T04:28:31.797Z,,,,,,,20969.887000000002,form submission,,,,81339.80000001192,81339.5,60352.502,60498.70000001788,60369.613,81203.831,
イントロ4,html.Page,3,2023-01-05T04:28:50.997Z,,,,,,,19336.268999994034,form submission,,,,100540.30000001192,100540.09999999404,81187.117,81340,81203.831,100400.891,
イントロ5,html.Page,4,2023-01-05T04:29:01.185Z,,,,,,,10326.509000005957,form submission,,,,110727.59999999404,110727.40000000596,100384.256,100540.5,100400.891,110609.363,
できるだけ早く正確に,canvas.Screen,5,2023-01-05T04:29:02.067Z,,,,,,,852.1999999999971,timeout,,,,111610.09999999404,111609.40000000596,110591.374,110727.70000001788,110609.363,111461.563,
空白時間1 (0.5秒),canvas.Screen,6_0_0,2023-01-05T04:29:02.434Z,,,b,,,270,370.0529999999999,timeout,e.jpg,,,111977.30000001192,111977.09999999404,111609.40000000596,111610.80000001192,111461.563,111831.616,
注視(1秒),canvas.Screen,6_0_1,2023-01-05T04:29:03.290Z,,,b,,,270,845.041000000012,timeout,e.jpg,,,112833,112832.70000001788,111977.09999999404,111977.5,111831.616,112676.657,
空白時間2 (0.5秒),canvas.Screen,6_0_2,2023-01-05T04:29:03.769Z,,,b,,,270,507.45999999999185,timeout,e.jpg,,,113312.30000001192,113167.209,112832.70000001788,112833.20000001788,112676.657,113184.117,
刺激提示(練習),canvas.Screen,6_0_3,2023-01-05T04:29:04.858Z,,,b,true,b,270,1215.8830000000016,response,e.jpg,b,keypress(f),114400.59999999404,114400,113167.209,113312.70000001788,113184.117,114266.659,
フィードバック(0.5秒),canvas.Screen,6_0_4,2023-01-05T04:29:05.352Z,,,b,,,270,500.7670000000071,timeout,e.jpg,,,114894.70000001788,114749.206,114249.375,114401.5,114266.659,114767.426,
トライアル,flow.Sequence,6_0,2023-01-05T04:29:05.353Z,,,b,,,270,3287.643000000011,completion,e.jpg,,,114895.70000001788,114749.206,111609.40000000596,111610.70000001788,111461.563,114767.426,
空白時間1 (0.5秒),canvas.Screen,6_1_0,2023-01-05T04:29:05.853Z,,,d,,,135,498.44499999999243,timeout,eR.jpg,,,115395.5,115249.583,114749.206,114896.30000001192,114767.426,115265.871,
注視(1秒),canvas.Screen,6_1_1,2023-01-05T04:29:06.723Z,,,d,,,135,849.7050000000017,timeout,eR.jpg,,,116265.90000000596,116265.70000001788,115249.583,115395.90000000596,115265.871,116115.576,
空白時間2 (0.5秒),canvas.Screen,6_1_2,2023-01-05T04:29:07.082Z,,,d,,,135,357.3139999999985,timeout,eR.jpg,,,116625.20000001788,116624.59999999404,116265.70000001788,116266,116115.576,116472.89,
刺激提示(練習),canvas.Screen,6_1_3,2023-01-05T04:29:08.323Z,,,d,false,d,135,1391.810000017882,response,eR.jpg,b,keypress(f),117866,117864.70000001788,116624.59999999404,116626.20000001788,116472.89,117740.1,
フィードバック(0.5秒),canvas.Screen,6_1_4,2023-01-05T04:29:08.706Z,,,d,,,135,357.5989999999874,timeout,eR.jpg,,,118248.59999999404,118248.20000001788,117721.695,117869.20000001788,117740.1,118097.699,
トライアル,flow.Sequence,6_1,2023-01-05T04:29:08.707Z,,,d,,,135,3480.7740000178746,completion,eR.jpg,,,118249.5,118248.20000001788,114749.206,114896.09999999404,114767.426,118097.699,
空白時間1 (0.5秒),canvas.Screen,6_2_0,2023-01-05T04:29:09.067Z,,,b,,,180,365.07500000001164,timeout,e.jpg,,,118609.30000001192,118608.80000001192,118248.20000001788,118249.90000000596,118097.699,118462.774,
注視(1秒),canvas.Screen,6_2_1,2023-01-05T04:29:09.923Z,,,b,,,180,844.080999999991,timeout,e.jpg,,,119466.20000001788,119465.80000001192,118608.80000001192,118609.90000000596,118462.774,119306.855,
空白時間2 (0.5秒),canvas.Screen,6_2_2,2023-01-05T04:29:10.391Z,,,b,,,180,499.40899999999965,timeout,e.jpg,,,119934.30000001192,119788.515,119465.80000001192,119466.40000000596,119306.855,119806.264,
刺激提示(練習),canvas.Screen,6_2_3,2023-01-05T04:29:11.822Z,,,b,true,b,180,1557.5360000119254,response,e.jpg,b,keypress(f),121364.90000000596,121363.80000001192,119788.515,119934.59999999404,119806.264,121244.94,
フィードバック(0.5秒),canvas.Screen,6_2_4,2023-01-05T04:29:12.330Z,,,b,,,180,501.7719999999972,timeout,e.jpg,,,121873.30000001192,121727.401,121228.652,121387.09999999404,121244.94,121746.712,
トライアル,flow.Sequence,6_2,2023-01-05T04:29:12.331Z,,,b,,,180,3629.702000000005,completion,e.jpg,,,121874,121727.401,118248.20000001788,118249.80000001192,118097.699,121746.712,
空白時間1 (0.5秒),canvas.Screen,6_3_0,2023-01-05T04:29:12.713Z,,,d,,,315,349.695000000007,timeout,eR.jpg,,,122256.30000001192,122256.09999999404,121727.401,121874.5,121746.712,122096.407,
注視(1秒),canvas.Screen,6_3_1,2023-01-05T04:29:13.562Z,,,d,,,315,858.0099999999948,timeout,eR.jpg,,,123105.40000000596,123105,122256.09999999404,122256.30000001192,122096.407,122954.417,
空白時間2 (0.5秒),canvas.Screen,6_3_2,2023-01-05T04:29:14.040Z,,,d,,,315,500.6049999999959,timeout,eR.jpg,,,123582.59999999404,123437.331,123105,123105.59999999404,122954.417,123455.022,
刺激提示(練習),canvas.Screen,6_3_3,2023-01-05T04:29:15.055Z,,,d,true,d,315,1141.7780000119237,response,eR.jpg,d,keypress(j),124597.90000000596,124596.80000001192,123437.331,123583.09999999404,123455.022,124458.84,
フィードバック(0.5秒),canvas.Screen,6_3_4,2023-01-05T04:29:15.546Z,,,d,,,315,502.752999999997,timeout,eR.jpg,,,125088.70000001788,124943.713,124442.53,124599.70000001788,124458.84,124961.593,
トライアル,flow.Sequence,6_3,2023-01-05T04:29:15.546Z,,,d,,,315,3197.001000000004,completion,eR.jpg,,,125089,124943.713,121727.401,121874.30000001192,121746.712,124961.593,
練習試行(e),flow.Loop,6,2023-01-05T04:29:15.547Z,,,,,,,13482.150000000009,completion,,,,125089.5,124943.713,111609.40000000596,111610.59999999404,111461.563,124961.593,
イントロ6,html.Page,7,2023-01-05T04:29:27.098Z,,,,,,,11679.607000017888,form submission,,,,136641.30000001192,136641.20000001788,124943.713,125089.70000001788,124961.593,136525.685,
できるだけ早く正確に,canvas.Screen,8,2023-01-05T04:29:27.986Z,,,,,,,858.5199999999895,timeout,,,,137528.70000001788,137528.59999999404,136508.918,136641.5,136525.685,137384.205,
空白時間1 (0.5秒),canvas.Screen,9_0_0,2023-01-05T04:29:28.466Z,,,b,,,270,496.15600000001723,timeout,e.jpg,,,138009,137863.244,137528.59999999404,137528.80000001192,137384.205,137880.361,
注視(1秒),canvas.Screen,9_0_1,2023-01-05T04:29:29.339Z,,,b,,,270,847.6030000000028,timeout,e.jpg,,,138881.40000000596,138881.09999999404,137863.244,138009.20000001788,137880.361,138727.964,
空白時間2 (0.5秒),canvas.Screen,9_0_2,2023-01-05T04:29:29.808Z,,,b,,,270,494.4199999999837,timeout,e.jpg,,,139351.20000001788,139205.465,138881.09999999404,138881.70000001788,138727.964,139222.384,
刺激提示,canvas.Screen,9_0_3,2023-01-05T04:29:30.724Z,,,b,true,b,270,1043.91600001193,response,e.jpg,b,keypress(f),140266.70000001788,140266.30000001192,139205.465,139351.59999999404,139222.384,140138.438,
フィードバック(0.5秒),canvas.Screen,9_0_4,2023-01-05T04:29:31.107Z,,,b,,,270,364.65200000000186,timeout,e.jpg,,,140648.59999999404,140648.5,140121.331,140274.20000001788,140138.438,140503.09,
トライアル,flow.Sequence,9_0,2023-01-05T04:29:31.107Z,,,b,,,270,3264.295000000013,completion,e.jpg,,,140648.70000001788,140648.5,137528.59999999404,137528.80000001192,137384.205,140503.09,
空白時間1 (0.5秒),canvas.Screen,9_1_0,2023-01-05T04:29:31.581Z,,,d,,,180,491.89100000000326,timeout,eR.jpg,,,141123.5,140978.062,140648.5,140648.80000001192,140503.09,140994.981,
注視(1秒),canvas.Screen,9_1_1,2023-01-05T04:29:32.451Z,,,d,,,180,845.4219999999914,timeout,eR.jpg,,,141993.30000001192,141992.80000001192,140978.062,141123.80000001192,140994.981,141840.403,
空白時間2 (0.5秒),canvas.Screen,9_1_2,2023-01-05T04:29:32.921Z,,,d,,,180,494.3620000000228,timeout,eR.jpg,,,142463.20000001788,142317.992,141992.80000001192,141993.59999999404,141840.403,142334.765,
刺激提示,canvas.Screen,9_1_3,2023-01-05T04:29:33.974Z,,,d,true,d,180,1180.3349999940256,response,eR.jpg,d,keypress(j),143516.20000001788,143515.09999999404,142317.992,142463.59999999404,142334.765,143375.524,
フィードバック(0.5秒),canvas.Screen,9_1_4,2023-01-05T04:29:34.466Z,,,d,,,180,503.42499999998836,timeout,eR.jpg,,,144008.40000000596,143862.392,143358.813,143517.80000001192,143375.524,143878.949,
トライアル,flow.Sequence,9_1,2023-01-05T04:29:34.467Z,,,d,,,180,3359.301999999996,completion,eR.jpg,,,144008.80000001192,143862.392,140648.5,140648.80000001192,140503.09,143878.949,
空白時間1 (0.5秒),canvas.Screen,9_2_0,2023-01-05T04:29:34.970Z,,,b,,,315,504.3530000000028,timeout,e.jpg,,,144511.70000001788,144366.549,143862.392,144009.09999999404,143878.949,144383.302,
注視(1秒),canvas.Screen,9_2_1,2023-01-05T04:29:35.842Z,,,b,,,315,840.7300000000105,timeout,e.jpg,,,145384.09999999404,145384,144366.549,144512,144383.302,145224.032,
空白時間2 (0.5秒),canvas.Screen,9_2_2,2023-01-05T04:29:36.187Z,,,b,,,315,348.3640000000014,timeout,e.jpg,,,145729,145728.80000001192,145384,145384.20000001788,145224.032,145572.396,
刺激提示,canvas.Screen,9_2_3,2023-01-05T04:29:36.832Z,,,b,true,b,315,800.2039999940316,response,e.jpg,b,keypress(f),146373.80000001192,146372.59999999404,145728.80000001192,145729,145572.396,146248.433,
フィードバック(0.5秒),canvas.Screen,9_2_4,2023-01-05T04:29:37.340Z,,,b,,,315,506.11000000001513,timeout,e.jpg,,,146881.80000001192,146736.235,146231.685,146390.20000001788,146248.433,146754.543,
トライアル,flow.Sequence,9_2,2023-01-05T04:29:37.340Z,,,b,,,315,2857.285999999993,completion,e.jpg,,,146882.09999999404,146736.235,143862.392,144009,143878.949,146754.543,
空白時間1 (0.5秒),canvas.Screen,9_3_0,2023-01-05T04:29:37.843Z,,,d,,,135,502.4199999999837,timeout,eR.jpg,,,147385.09999999404,147240.166,146736.235,146882.30000001192,146754.543,147256.963,
注視(1秒),canvas.Screen,9_3_1,2023-01-05T04:29:38.723Z,,,d,,,135,854.1030000000028,timeout,eR.jpg,,,148264.80000001192,148264.40000000596,147240.166,147385.5,147256.963,148111.066,
空白時間2 (0.5秒),canvas.Screen,9_3_2,2023-01-05T04:29:39.193Z,,,d,,,135,497.00900000002,timeout,eR.jpg,,,148735.30000001192,148589.767,148264.40000000596,148265,148111.066,148608.075,
刺激提示,canvas.Screen,9_3_3,2023-01-05T04:29:40.554Z,,,d,false,d,135,1486.6250000178698,response,eR.jpg,b,keypress(f),150095.5,150094.70000001788,148589.767,148735.80000001192,148608.075,149955.137,
フィードバック(0.5秒),canvas.Screen,9_3_4,2023-01-05T04:29:40.923Z,,,d,,,135,362.6580000000249,timeout,eR.jpg,,,150465.09999999404,150464.59999999404,149938.141,150096,149955.137,150317.795,
トライアル,flow.Sequence,9_3,2023-01-05T04:29:40.924Z,,,d,,,135,3710.0569999940344,completion,eR.jpg,,,150465.59999999404,150464.59999999404,146736.235,146882.30000001192,146754.543,150317.795,
空白時間1 (0.5秒),canvas.Screen,9_4_0,2023-01-05T04:29:41.405Z,,,d,,,225,502.6569999999774,timeout,eR.jpg,,,150947.5,150802.646,150464.59999999404,150465.80000001192,150317.795,150820.452,
注視(1秒),canvas.Screen,9_4_1,2023-01-05T04:29:42.276Z,,,d,,,225,854.6000000000058,timeout,eR.jpg,,,151818,151817.59999999404,150802.646,150947.59999999404,150820.452,151675.052,
空白時間2 (0.5秒),canvas.Screen,9_4_2,2023-01-05T04:29:42.759Z,,,d,,,225,497.28100000001723,timeout,eR.jpg,,,152301.40000000596,152155.365,151817.59999999404,151818.30000001192,151675.052,152172.333,
刺激提示,canvas.Screen,9_4_3,2023-01-05T04:29:44.579Z,,,d,false,d,225,1947.0670000059472,response,eR.jpg,b,keypress(f),154120.5,154119.40000000596,152155.365,152301.40000000596,152172.333,154004.748,
フィードバック(0.5秒),canvas.Screen,9_4_4,2023-01-05T04:29:44.971Z,,,d,,,225,364.5329999999958,timeout,eR.jpg,,,154512.90000000596,154512.40000000596,153987.876,154145.90000000596,154004.748,154369.281,
トライアル,flow.Sequence,9_4,2023-01-05T04:29:44.972Z,,,d,,,225,4194.605000005948,completion,eR.jpg,,,154513.5,154512.40000000596,150464.59999999404,150465.80000001192,150317.795,154369.281,
空白時間1 (0.5秒),canvas.Screen,9_5_0,2023-01-05T04:29:45.332Z,,,d,,,0,349.445000000007,timeout,eR.jpg,,,154874,154873.70000001788,154512.40000000596,154513.80000001192,154369.281,154718.726,
注視(1秒),canvas.Screen,9_5_1,2023-01-05T04:29:46.171Z,,,d,,,0,845.8880000000063,timeout,eR.jpg,,,155713.30000001192,155712.70000001788,154873.70000001788,154874.30000001192,154718.726,155564.614,
空白時間2 (0.5秒),canvas.Screen,9_5_2,2023-01-05T04:29:46.653Z,,,d,,,0,502.49299999998766,timeout,eR.jpg,,,156194.80000001192,156048.799,155712.70000001788,155713.70000001788,155564.614,156067.107,
刺激提示,canvas.Screen,9_5_3,2023-01-05T04:29:47.624Z,,,d,true,d,0,1097.6930000119319,response,eR.jpg,d,keypress(j),157166.09999999404,157164.80000001192,156048.799,156195.20000001788,156067.107,157047.575,
フィードバック(0.5秒),canvas.Screen,9_5_4,2023-01-05T04:29:48.139Z,,,d,,,0,505.4089999999851,timeout,eR.jpg,,,157681.09999999404,157536.034,157029.841,157186.90000000596,157047.575,157552.984,
トライアル,flow.Sequence,9_5,2023-01-05T04:29:48.139Z,,,d,,,0,3166.753000000026,completion,eR.jpg,,,157681.30000001192,157536.034,154512.40000000596,154513.70000001788,154369.281,157552.984,
空白時間1 (0.5秒),canvas.Screen,9_6_0,2023-01-05T04:29:48.642Z,,,d,,,315,504.5899999999965,timeout,eR.jpg,,,158184.30000001192,158039.84,157536.034,157681.40000000596,157552.984,158057.574,
注視(1秒),canvas.Screen,9_6_1,2023-01-05T04:29:49.515Z,,,d,,,315,851.6780000000144,timeout,eR.jpg,,,159057.20000001788,159056.80000001192,158039.84,158184.30000001192,158057.574,158909.252,
空白時間2 (0.5秒),canvas.Screen,9_6_2,2023-01-05T04:29:49.875Z,,,d,,,315,348.60799999997835,timeout,eR.jpg,,,159417.09999999404,159416.70000001788,159056.80000001192,159057.5,158909.252,159257.86,
刺激提示,canvas.Screen,9_6_3,2023-01-05T04:29:50.702Z,,,d,true,d,315,984.7399999940535,response,eR.jpg,d,keypress(j),160244,160242.59999999404,159416.70000001788,159417.40000000596,159257.86,160120.335,
フィードバック(0.5秒),canvas.Screen,9_6_4,2023-01-05T04:29:51.210Z,,,d,,,315,502.6130000000121,timeout,eR.jpg,,,160752,160606.203,160102.601,160249.40000000596,160120.335,160622.948,
トライアル,flow.Sequence,9_6,2023-01-05T04:29:51.211Z,,,d,,,315,3053.219000000012,completion,eR.jpg,,,160752.5,160606.203,157536.034,157681.40000000596,157552.984,160622.948,
空白時間1 (0.5秒),canvas.Screen,9_7_0,2023-01-05T04:29:51.588Z,,,b,,,225,362.9640000000072,timeout,e.jpg,,,161130.40000000596,161130,160606.203,160752.80000001192,160622.948,160985.912,
注視(1秒),canvas.Screen,9_7_1,2023-01-05T04:29:52.443Z,,,b,,,225,848.9249999999884,timeout,e.jpg,,,161984.80000001192,161984.5,161130,161130.59999999404,160985.912,161834.837,
空白時間2 (0.5秒),canvas.Screen,9_7_2,2023-01-05T04:29:52.803Z,,,b,,,225,365.20100000000093,timeout,e.jpg,,,162344.5,162344.5,161984.5,161985,161834.837,162200.038,
刺激提示,canvas.Screen,9_7_3,2023-01-05T04:29:54.241Z,,,b,true,b,225,1581.86200000596,response,e.jpg,b,keypress(f),163783,163781.90000000596,162344.5,162344.59999999404,162200.038,163668.505,
フィードバック(0.5秒),canvas.Screen,9_7_4,2023-01-05T04:29:54.636Z,,,b,,,225,365.4739999999874,timeout,e.jpg,,,164177.59999999404,164177.5,163651.59,163806.30000001192,163668.505,164033.979,
トライアル,flow.Sequence,9_7,2023-01-05T04:29:54.636Z,,,b,,,225,3554.551999999996,completion,e.jpg,,,164177.90000000596,164177.5,160606.203,160752.70000001788,160622.948,164033.979,
空白時間1 (0.5秒),canvas.Screen,9_8_0,2023-01-05T04:29:54.995Z,,,d,,,90,345.86800000001676,timeout,eR.jpg,,,164537.20000001788,164536.80000001192,164177.5,164178.09999999404,164033.979,164379.847,
注視(1秒),canvas.Screen,9_8_1,2023-01-05T04:29:55.834Z,,,d,,,90,846.0570000000007,timeout,eR.jpg,,,165376.40000000596,165376.20000001788,164536.80000001192,164537.40000000596,164379.847,165225.904,
空白時間2 (0.5秒),canvas.Screen,9_8_2,2023-01-05T04:29:56.317Z,,,d,,,90,504.8299999999872,timeout,eR.jpg,,,165858.90000000596,165713.994,165376.20000001788,165376.5,165225.904,165730.734,
刺激提示,canvas.Screen,9_8_3,2023-01-05T04:29:57.360Z,,,d,true,d,90,1171.1660000059637,response,eR.jpg,d,keypress(j),166902.40000000596,166901.90000000596,165713.994,165859,165730.734,166774.64,
フィードバック(0.5秒),canvas.Screen,9_8_4,2023-01-05T04:29:57.739Z,,,d,,,90,357.61799999998766,timeout,eR.jpg,,,167280.80000001192,167280.70000001788,166757.967,166910,166774.64,167132.258,
トライアル,flow.Sequence,9_8,2023-01-05T04:29:57.739Z,,,d,,,90,3246.7210000178893,completion,eR.jpg,,,167280.90000000596,167280.70000001788,164177.5,164178.09999999404,164033.979,167132.258,
空白時間1 (0.5秒),canvas.Screen,9_9_0,2023-01-05T04:29:58.092Z,,,b,,,45,349.3880000000063,timeout,e.jpg,,,167634,167633.59999999404,167280.70000001788,167281,167132.258,167481.646,
注視(1秒),canvas.Screen,9_9_1,2023-01-05T04:29:58.939Z,,,b,,,45,840.125,timeout,e.jpg,,,168481.30000001192,168481.20000001788,167633.59999999404,167634.20000001788,167481.646,168321.771,
空白時間2 (0.5秒),canvas.Screen,9_9_2,2023-01-05T04:29:59.402Z,,,b,,,45,493.6600000000035,timeout,e.jpg,,,168944.40000000596,168798.522,168481.20000001788,168481.40000000596,168321.771,168815.431,
刺激提示,canvas.Screen,9_9_3,2023-01-05T04:30:01.145Z,,,b,true,b,45,1871.1689999940281,response,e.jpg,b,keypress(f),170687.20000001788,170686.59999999404,168798.522,168944.70000001788,168815.431,170566.356,
フィードバック(0.5秒),canvas.Screen,9_9_4,2023-01-05T04:30:01.659Z,,,b,,,45,505.66599999999744,timeout,e.jpg,,,171200.80000001192,171055.294,170549.634,170696.30000001192,170566.356,171072.022,
トライアル,flow.Sequence,9_9,2023-01-05T04:30:01.659Z,,,b,,,45,3923.035999999993,completion,e.jpg,,,171201.09999999404,171055.294,167280.70000001788,167281,167132.258,171072.022,
空白時間1 (0.5秒),canvas.Screen,9_10_0,2023-01-05T04:30:02.150Z,,,d,,,45,492.125,timeout,eR.jpg,,,171692.30000001192,171547.266,171055.294,171201.5,171072.022,171564.147,
注視(1秒),canvas.Screen,9_10_1,2023-01-05T04:30:03.019Z,,,d,,,45,836.7939999999944,timeout,eR.jpg,,,172560.70000001788,172560.5,171547.266,171692.70000001788,171564.147,172400.941,
空白時間2 (0.5秒),canvas.Screen,9_10_2,2023-01-05T04:30:03.372Z,,,d,,,45,367.4189999999944,timeout,eR.jpg,,,172913.59999999404,172913.5,172560.5,172560.80000001192,172400.941,172768.36,
刺激提示,canvas.Screen,9_10_3,2023-01-05T04:30:04.155Z,,,d,true,d,45,927.4400000119349,response,eR.jpg,d,keypress(j),173697.40000000596,173695.80000001192,172913.5,172913.70000001788,172768.36,173560.212,
フィードバック(0.5秒),canvas.Screen,9_10_4,2023-01-05T04:30:04.523Z,,,d,,,45,349.6259999999893,timeout,eR.jpg,,,174065,174064.40000000596,173543.543,173699.80000001192,173560.212,173909.838,
トライアル,flow.Sequence,9_10,2023-01-05T04:30:04.524Z,,,d,,,45,2992.3780000059633,completion,eR.jpg,,,174065.5,174064.40000000596,171055.294,171201.5,171072.022,173909.838,
空白時間1 (0.5秒),canvas.Screen,9_11_0,2023-01-05T04:30:04.874Z,,,b,,,90,360.06400000001304,timeout,e.jpg,,,174416.5,174416.30000001192,174064.40000000596,174065.90000000596,173909.838,174269.902,
注視(1秒),canvas.Screen,9_11_1,2023-01-05T04:30:05.732Z,,,b,,,90,852.3219999999856,timeout,e.jpg,,,175273.70000001788,175273.30000001192,174416.30000001192,174416.5,174269.902,175122.224,
空白時間2 (0.5秒),canvas.Screen,9_11_2,2023-01-05T04:30:06.216Z,,,b,,,90,507.4760000000242,timeout,e.jpg,,,175757.90000000596,175612.978,175273.30000001192,175274,175122.224,175629.7,
刺激提示,canvas.Screen,9_11_3,2023-01-05T04:30:06.881Z,,,b,true,b,90,792.5000000178698,response,e.jpg,b,keypress(f),176422.59999999404,176422.20000001788,175612.978,175758.09999999404,175629.7,176292.704,
フィードバック(0.5秒),canvas.Screen,9_11_4,2023-01-05T04:30:07.260Z,,,b,,,90,355.68700000000536,timeout,e.jpg,,,176801.5,176801,176275.993,176434.70000001788,176292.704,176648.391,
トライアル,flow.Sequence,9_11,2023-01-05T04:30:07.260Z,,,b,,,90,2891.162000000011,completion,e.jpg,,,176802.09999999404,176801,174064.40000000596,174065.80000001192,173909.838,176648.391,
空白時間1 (0.5秒),canvas.Screen,9_12_0,2023-01-05T04:30:07.620Z,,,b,,,135,364.91599999999744,timeout,e.jpg,,,177161.80000001192,177161.59999999404,176801,176802.30000001192,176648.391,177013.307,
注視(1秒),canvas.Screen,9_12_1,2023-01-05T04:30:08.466Z,,,b,,,135,838.4169999999867,timeout,e.jpg,,,178008.5,178008.09999999404,177161.59999999404,177161.90000000596,177013.307,177851.724,
空白時間2 (0.5秒),canvas.Screen,9_12_2,2023-01-05T04:30:08.819Z,,,b,,,135,363.9550000000163,timeout,e.jpg,,,178361.40000000596,178361.09999999404,178008.09999999404,178008.59999999404,177851.724,178215.679,
刺激提示,canvas.Screen,9_12_3,2023-01-05T04:30:09.614Z,,,b,true,b,135,939.3209999999963,response,e.jpg,b,keypress(f),179156.09999999404,179155,178361.09999999404,178361.70000001788,178215.679,179025.674,
フィードバック(0.5秒),canvas.Screen,9_12_4,2023-01-05T04:30:10.106Z,,,b,,,135,494.4750000000058,timeout,e.jpg,,,179648.5,179503.323,179009.152,179157.80000001192,179025.674,179520.149,
トライアル,flow.Sequence,9_12,2023-01-05T04:30:10.107Z,,,b,,,135,2854.9320000000007,completion,e.jpg,,,179648.90000000596,179503.323,176801,176802.30000001192,176648.391,179520.149,
空白時間1 (0.5秒),canvas.Screen,9_13_0,2023-01-05T04:30:10.601Z,,,b,,,180,493.9799999999814,timeout,e.jpg,,,180142.90000000596,179997.341,179503.323,179649.20000001788,179520.149,180014.129,
注視(1秒),canvas.Screen,9_13_1,2023-01-05T04:30:11.475Z,,,b,,,180,846.4380000000237,timeout,e.jpg,,,181017.40000000596,181017.30000001192,179997.341,180143.20000001788,180014.129,180860.567,
空白時間2 (0.5秒),canvas.Screen,9_13_2,2023-01-05T04:30:11.827Z,,,b,,,180,364.9749999999767,timeout,e.jpg,,,181368.90000000596,181368.59999999404,181017.30000001192,181017.5,180860.567,181225.542,
刺激提示,canvas.Screen,9_13_3,2023-01-05T04:30:12.825Z,,,b,true,b,180,1141.0579999940528,response,e.jpg,b,keypress(f),182367.20000001788,182366.59999999404,181368.59999999404,181369.20000001788,181225.542,182225.398,
フィードバック(0.5秒),canvas.Screen,9_13_4,2023-01-05T04:30:13.187Z,,,b,,,180,346.71000000002095,timeout,e.jpg,,,182729,182728.5,182208.61,182367.90000000596,182225.398,182572.108,
トライアル,flow.Sequence,9_13,2023-01-05T04:30:13.187Z,,,b,,,180,3208.350999999995,completion,e.jpg,,,182729.40000000596,182728.5,179503.323,179649.09999999404,179520.149,182572.108,
空白時間1 (0.5秒),canvas.Screen,9_14_0,2023-01-05T04:30:13.651Z,,,d,,,270,492.38199999998324,timeout,eR.jpg,,,183193.09999999404,183047.829,182728.5,182729.70000001788,182572.108,183064.49,
注視(1秒),canvas.Screen,9_14_1,2023-01-05T04:30:14.524Z,,,d,,,270,848.1350000000093,timeout,eR.jpg,,,184065.59999999404,184065.30000001192,183047.829,183193.09999999404,183064.49,183912.625,
空白時間2 (0.5秒),canvas.Screen,9_14_2,2023-01-05T04:30:15.007Z,,,d,,,270,507.8999999999942,timeout,eR.jpg,,,184549.09999999404,184403.677,184065.30000001192,184065.90000000596,183912.625,184420.525,
刺激提示,canvas.Screen,9_14_3,2023-01-05T04:30:16.013Z,,,d,true,d,270,1133.3750000059663,response,eR.jpg,d,keypress(j),185555.09999999404,185553.90000000596,184403.677,184549.40000000596,184420.525,185421.385,
フィードバック(0.5秒),canvas.Screen,9_14_4,2023-01-05T04:30:16.387Z,,,d,,,270,361.9189999999944,timeout,eR.jpg,,,185929,185928.59999999404,185404.724,185562.59999999404,185421.385,185783.304,
トライアル,flow.Sequence,9_14,2023-01-05T04:30:16.388Z,,,d,,,270,3356.491999994032,completion,eR.jpg,,,185929.5,185928.59999999404,182728.5,182729.59999999404,182572.108,185783.304,
空白時間1 (0.5秒),canvas.Screen,9_15_0,2023-01-05T04:30:16.865Z,,,b,,,0,495.1389999999956,timeout,e.jpg,,,186407.09999999404,186261.737,185928.59999999404,185929.70000001788,185783.304,186278.443,
注視(1秒),canvas.Screen,9_15_1,2023-01-05T04:30:17.731Z,,,b,,,0,840.2609999999986,timeout,e.jpg,,,187273.09999999404,187272.70000001788,186261.737,186407.30000001192,186278.443,187118.704,
空白時間2 (0.5秒),canvas.Screen,9_15_2,2023-01-05T04:30:18.198Z,,,b,,,0,492.64400000000023,timeout,e.jpg,,,187739.70000001788,187594.572,187272.70000001788,187273.30000001192,187118.704,187611.348,
刺激提示,canvas.Screen,9_15_3,2023-01-05T04:30:19.008Z,,,b,true,b,0,938.2519999940414,response,e.jpg,b,keypress(f),188550,188549.59999999404,187594.572,187739.80000001192,187611.348,188420.838,
フィードバック(0.5秒),canvas.Screen,9_15_4,2023-01-05T04:30:19.512Z,,,b,,,0,504.75,timeout,e.jpg,,,189054.30000001192,188908.771,188404.135,188561.5,188420.838,188925.588,
トライアル,flow.Sequence,9_15,2023-01-05T04:30:19.513Z,,,b,,,0,3125.467000000004,completion,e.jpg,,,189054.80000001192,188908.771,185928.59999999404,185929.70000001788,185783.304,188925.588,
タスクのセット,flow.Loop,9,2023-01-05T04:30:19.513Z,,,,,,,51524.56600000002,completion,,,,189055.09999999404,188908.771,137528.59999999404,137528.80000001192,137384.205,188925.588,
空白時間1 (0.5秒),canvas.Screen,10_0_0,2023-01-05T04:30:19.892Z,,,d,,,0,359.0810000000056,timeout,eR.jpg,,,189433.90000000596,189433.5,188908.771,189055.40000000596,188925.588,189284.669,
注視(1秒),canvas.Screen,10_0_1,2023-01-05T04:30:20.748Z,,,d,,,0,850.3080000000191,timeout,eR.jpg,,,190289.80000001192,190289.5,189433.5,189434.20000001788,189284.669,190134.977,
空白時間2 (0.5秒),canvas.Screen,10_0_2,2023-01-05T04:30:21.100Z,,,d,,,0,362.9779999999737,timeout,eR.jpg,,,190641.90000000596,190641.70000001788,190289.5,190290.09999999404,190134.977,190497.955,
刺激提示,canvas.Screen,10_0_3,2023-01-05T04:30:21.661Z,,,d,true,d,0,704.2450000178942,response,eR.jpg,d,keypress(j),191202.59999999404,191202.20000001788,190641.70000001788,190642.09999999404,190497.955,191064.137,
フィードバック(0.5秒),canvas.Screen,10_0_4,2023-01-05T04:30:22.156Z,,,d,,,0,505.9910000000091,timeout,eR.jpg,,,191698.40000000596,191553.427,191046.284,191203.5,191064.137,191570.128,
トライアル,flow.Sequence,10_0,2023-01-05T04:30:22.157Z,,,d,,,0,2627.839000000007,completion,eR.jpg,,,191698.59999999404,191553.427,188908.771,189055.40000000596,188925.588,191570.128,
空白時間1 (0.5秒),canvas.Screen,10_1_0,2023-01-05T04:30:22.651Z,,,d,,,90,494.51699999999255,timeout,eR.jpg,,,192193,192047.836,191553.427,191698.59999999404,191570.128,192064.645,
注視(1秒),canvas.Screen,10_1_1,2023-01-05T04:30:23.524Z,,,d,,,90,845.2780000000203,timeout,eR.jpg,,,193065.80000001192,193065.70000001788,192047.836,192193.5,192064.645,192909.923,
空白時間2 (0.5秒),canvas.Screen,10_1_2,2023-01-05T04:30:24.002Z,,,d,,,90,505.0239999999758,timeout,eR.jpg,,,193544,193397.893,193065.70000001788,193065.90000000596,192909.923,193414.947,
刺激提示,canvas.Screen,10_1_3,2023-01-05T04:30:24.841Z,,,d,true,d,90,966.5530000000144,response,eR.jpg,d,keypress(j),194382.70000001788,194381.5,193397.893,193544,193414.947,194253.197,
フィードバック(0.5秒),canvas.Screen,10_1_4,2023-01-05T04:30:25.219Z,,,d,,,90,363.0800000000163,timeout,eR.jpg,,,194761.30000001192,194760.80000001192,194236.432,194386.59999999404,194253.197,194616.277,
トライアル,flow.Sequence,10_1,2023-01-05T04:30:25.220Z,,,d,,,90,3190.672000011924,completion,eR.jpg,,,194761.80000001192,194760.80000001192,191553.427,191698.59999999404,191570.128,194616.277,
空白時間1 (0.5秒),canvas.Screen,10_2_0,2023-01-05T04:30:25.579Z,,,b,,,270,349.57500000001164,timeout,e.jpg,,,195120.90000000596,195120.59999999404,194760.80000001192,194762.09999999404,194616.277,194965.852,
注視(1秒),canvas.Screen,10_2_1,2023-01-05T04:30:26.427Z,,,b,,,270,848.859999999986,timeout,e.jpg,,,195969.09999999404,195969,195120.59999999404,195121.20000001788,194965.852,195814.712,
空白時間2 (0.5秒),canvas.Screen,10_2_2,2023-01-05T04:30:26.905Z,,,b,,,270,503.83699999999953,timeout,e.jpg,,,196447.30000001192,196301.852,195969,195969.30000001192,195814.712,196318.549,
刺激提示,canvas.Screen,10_2_3,2023-01-05T04:30:27.605Z,,,b,true,b,270,827.3510000059614,response,e.jpg,b,keypress(f),197147.09999999404,197145.90000000596,196301.852,196447.59999999404,196318.549,197033.272,
フィードバック(0.5秒),canvas.Screen,10_2_4,2023-01-05T04:30:28.119Z,,,b,,,270,498.14199999999255,timeout,e.jpg,,,197660.59999999404,197514.982,197016.527,197175.90000000596,197033.272,197531.414,
トライアル,flow.Sequence,10_2,2023-01-05T04:30:28.119Z,,,b,,,270,2898.704999999987,completion,e.jpg,,,197661.20000001788,197514.982,194760.80000001192,194762,194616.277,197531.414,
空白時間1 (0.5秒),canvas.Screen,10_3_0,2023-01-05T04:30:28.491Z,,,b,,,180,343.5360000000219,timeout,e.jpg,,,198033,198032.59999999404,197514.982,197661.40000000596,197531.414,197874.95,
注視(1秒),canvas.Screen,10_3_1,2023-01-05T04:30:29.330Z,,,b,,,180,841.1909999999916,timeout,e.jpg,,,198872.20000001788,198872,198032.59999999404,198033.20000001788,197874.95,198716.141,
空白時間2 (0.5秒),canvas.Screen,10_3_2,2023-01-05T04:30:29.808Z,,,b,,,180,504.3640000000014,timeout,e.jpg,,,199349.5,199203.801,198872,198872.30000001192,198716.141,199220.505,
刺激提示,canvas.Screen,10_3_3,2023-01-05T04:30:30.495Z,,,b,false,b,180,816.0949999940349,response,e.jpg,d,keypress(j),200037,200036.59999999404,199203.801,199349.90000000596,199220.505,199896.178,
フィードバック(0.5秒),canvas.Screen,10_3_4,2023-01-05T04:30:30.988Z,,,b,,,180,505.5139999999956,timeout,e.jpg,,,200529.5,200385.049,199879.488,200038.59999999404,199896.178,200401.692,
トライアル,flow.Sequence,10_3,2023-01-05T04:30:30.988Z,,,b,,,180,2853.6350000000093,completion,e.jpg,,,200529.70000001788,200385.049,197514.982,197661.40000000596,197531.414,200401.692,
空白時間1 (0.5秒),canvas.Screen,10_4_0,2023-01-05T04:30:31.486Z,,,b,,,90,499.042999999976,timeout,e.jpg,,,201028.40000000596,200884.303,200385.049,200529.80000001192,200401.692,200900.735,
注視(1秒),canvas.Screen,10_4_1,2023-01-05T04:30:32.355Z,,,b,,,90,845.4550000000163,timeout,e.jpg,,,201897.30000001192,201897.20000001788,200884.303,201028.40000000596,200900.735,201746.19,
空白時間2 (0.5秒),canvas.Screen,10_4_2,2023-01-05T04:30:32.832Z,,,b,,,90,500.1490000000049,timeout,e.jpg,,,202374.40000000596,202229.696,201897.20000001788,201897.40000000596,201746.19,202246.339,
刺激提示,canvas.Screen,10_4_3,2023-01-05T04:30:33.899Z,,,b,true,b,90,1193.2609999940323,response,e.jpg,b,keypress(f),203440.70000001788,203439.59999999404,202229.696,202374.59999999404,202246.339,203319.607,
フィードバック(0.5秒),canvas.Screen,10_4_4,2023-01-05T04:30:34.401Z,,,b,,,90,492.8980000000156,timeout,e.jpg,,,203942.70000001788,203795.817,203303.161,203457.09999999404,203319.607,203812.505,
トライアル,flow.Sequence,10_4,2023-01-05T04:30:34.401Z,,,b,,,90,3394.125,completion,e.jpg,,,203943.30000001192,203795.817,200385.049,200529.80000001192,200401.692,203812.505,
空白時間1 (0.5秒),canvas.Screen,10_5_0,2023-01-05T04:30:34.905Z,,,b,,,45,506.81399999998393,timeout,e.jpg,,,204447,204302.593,203795.817,203943.59999999404,203812.505,204319.319,
注視(1秒),canvas.Screen,10_5_1,2023-01-05T04:30:35.779Z,,,b,,,45,859.2110000000102,timeout,e.jpg,,,205321.30000001192,205320.90000000596,204302.593,204447.09999999404,204319.319,205178.53,
空白時間2 (0.5秒),canvas.Screen,10_5_2,2023-01-05T04:30:36.257Z,,,b,,,45,491.93299999999,timeout,e.jpg,,,205799.20000001788,205653.734,205320.90000000596,205321.59999999404,205178.53,205670.463,
刺激提示,canvas.Screen,10_5_3,2023-01-05T04:30:37.243Z,,,b,true,b,45,1113.2370000178926,response,e.jpg,b,keypress(f),206785.09999999404,206783.70000001788,205653.734,205800.59999999404,205670.463,206677.375,
フィードバック(0.5秒),canvas.Screen,10_5_4,2023-01-05T04:30:37.643Z,,,b,,,45,364.32500000001164,timeout,e.jpg,,,207185,207184.5,206660.674,206808.90000000596,206677.375,207041.7,
トライアル,flow.Sequence,10_5,2023-01-05T04:30:37.643Z,,,b,,,45,3371.9949999999953,completion,e.jpg,,,207185.30000001192,207184.5,203795.817,203943.59999999404,203812.505,207041.7,
空白時間1 (0.5秒),canvas.Screen,10_6_0,2023-01-05T04:30:38.011Z,,,d,,,135,365.5789999999979,timeout,eR.jpg,,,207552.70000001788,207552.59999999404,207184.5,207185.59999999404,207041.7,207407.279,
注視(1秒),canvas.Screen,10_6_1,2023-01-05T04:30:38.867Z,,,d,,,135,843.2029999999795,timeout,eR.jpg,,,208408.80000001192,208408.59999999404,207552.59999999404,207552.80000001192,207407.279,208250.482,
空白時間2 (0.5秒),canvas.Screen,10_6_2,2023-01-05T04:30:39.345Z,,,d,,,135,507.9190000000235,timeout,eR.jpg,,,208887.09999999404,208741.638,208408.59999999404,208408.90000000596,208250.482,208758.401,
刺激提示,canvas.Screen,10_6_3,2023-01-05T04:30:41.430Z,,,d,true,d,135,2212.799000017869,response,eR.jpg,d,keypress(j),210972.59999999404,210971.20000001788,208741.638,208887.40000000596,208758.401,210846.52,
フィードバック(0.5秒),canvas.Screen,10_6_4,2023-01-05T04:30:41.811Z,,,d,,,135,364.25,timeout,eR.jpg,,,211353.30000001192,211352.80000001192,210829.755,210984.80000001192,210846.52,211210.77,
トライアル,flow.Sequence,10_6,2023-01-05T04:30:41.812Z,,,d,,,135,4311.100000011909,completion,eR.jpg,,,211354.09999999404,211352.80000001192,207184.5,207185.59999999404,207041.7,211210.77,
空白時間1 (0.5秒),canvas.Screen,10_7_0,2023-01-05T04:30:42.292Z,,,d,,,180,494.30199999999604,timeout,eR.jpg,,,211834.40000000596,211688.361,211352.80000001192,211354.5,211210.77,211705.072,
注視(1秒),canvas.Screen,10_7_1,2023-01-05T04:30:43.289Z,,,d,,,180,996.6780000000144,timeout,eR.jpg,,,212830.70000001788,212684.978,211688.361,211834.80000001192,211705.072,212701.75,
空白時間2 (0.5秒),canvas.Screen,10_7_2,2023-01-05T04:30:43.794Z,,,d,,,180,504.372000000003,timeout,eR.jpg,,,213335.80000001192,213189.414,212684.978,212830.80000001192,212701.75,213206.122,
刺激提示,canvas.Screen,10_7_3,2023-01-05T04:30:45.142Z,,,d,true,d,180,1476.377999999997,response,eR.jpg,d,keypress(j),214684,214682.5,213189.414,213336.09999999404,213206.122,214582.503,
フィードバック(0.5秒),canvas.Screen,10_7_4,2023-01-05T04:30:45.672Z,,,d,,,180,502.50400000001537,timeout,eR.jpg,,,215213.90000000596,215068.299,214566.457,214712,214582.503,215085.007,
トライアル,flow.Sequence,10_7,2023-01-05T04:30:45.672Z,,,d,,,180,3857.5290000000095,completion,eR.jpg,,,215214,215068.299,211352.80000001192,211354.40000000596,211210.77,215085.007,
空白時間1 (0.5秒),canvas.Screen,10_8_0,2023-01-05T04:30:46.052Z,,,d,,,270,359.75499999997555,timeout,eR.jpg,,,215593.80000001192,215593.40000000596,215068.299,215214.09999999404,215085.007,215444.762,
注視(1秒),canvas.Screen,10_8_1,2023-01-05T04:30:46.907Z,,,d,,,270,852.820000000007,timeout,eR.jpg,,,216449.5,216449.20000001788,215593.40000000596,215594.09999999404,215444.762,216297.582,
空白時間2 (0.5秒),canvas.Screen,10_8_2,2023-01-05T04:30:47.386Z,,,d,,,270,501.6940000000177,timeout,eR.jpg,,,216928.09999999404,216782.568,216449.20000001788,216449.70000001788,216297.582,216799.276,
刺激提示,canvas.Screen,10_8_3,2023-01-05T04:30:48.528Z,,,d,true,d,270,1270.0240000119084,response,eR.jpg,d,keypress(j),218069.80000001192,218069.30000001192,216782.568,216928.30000001192,216799.276,217934.044,
フィードバック(0.5秒),canvas.Screen,10_8_4,2023-01-05T04:30:48.891Z,,,d,,,270,344.15499999999884,timeout,eR.jpg,,,218432.80000001192,218432.30000001192,217916.83,218070.40000000596,217934.044,218278.199,
トライアル,flow.Sequence,10_8,2023-01-05T04:30:48.891Z,,,d,,,270,3347.2930000119086,completion,eR.jpg,,,218433.20000001788,218432.30000001192,215068.299,215214.09999999404,215085.007,218278.199,
空白時間1 (0.5秒),canvas.Screen,10_9_0,2023-01-05T04:30:49.357Z,,,b,,,0,491.8740000000107,timeout,e.jpg,,,218898.70000001788,218753.222,218432.30000001192,218433.5,218278.199,218770.073,
注視(1秒),canvas.Screen,10_9_1,2023-01-05T04:30:50.227Z,,,b,,,0,842.7829999999958,timeout,e.jpg,,,219769.5,219769.09999999404,218753.222,218898.90000000596,218770.073,219612.856,
空白時間2 (0.5秒),canvas.Screen,10_9_2,2023-01-05T04:30:50.705Z,,,b,,,0,505.95900000000256,timeout,e.jpg,,,220247.5,220102.107,219769.09999999404,219769.80000001192,219612.856,220118.815,
刺激提示,canvas.Screen,10_9_3,2023-01-05T04:30:51.423Z,,,b,true,b,0,845.2849999940372,response,e.jpg,b,keypress(f),220964.90000000596,220964.09999999404,220102.107,220247.80000001192,220118.815,220848.82,
フィードバック(0.5秒),canvas.Screen,10_9_4,2023-01-05T04:30:51.927Z,,,b,,,0,491.9400000000023,timeout,e.jpg,,,221469.20000001788,221324.153,220831.979,220985.80000001192,220848.82,221340.76,
トライアル,flow.Sequence,10_9,2023-01-05T04:30:51.928Z,,,b,,,0,3045.953999999998,completion,e.jpg,,,221469.80000001192,221324.153,218432.30000001192,218433.5,218278.199,221340.76,
空白時間1 (0.5秒),canvas.Screen,10_10_0,2023-01-05T04:30:52.307Z,,,d,,,45,349.63000000000466,timeout,eR.jpg,,,221849.40000000596,221849.20000001788,221324.153,221470,221340.76,221690.39,
注視(1秒),canvas.Screen,10_10_1,2023-01-05T04:30:53.147Z,,,d,,,45,855.0529999999853,timeout,eR.jpg,,,222689.40000000596,222689.09999999404,221849.20000001788,221849.5,221690.39,222545.443,
空白時間2 (0.5秒),canvas.Screen,10_10_2,2023-01-05T04:30:53.634Z,,,d,,,45,502.1570000000065,timeout,eR.jpg,,,223176.20000001788,223030.902,222689.09999999404,222689.80000001192,222545.443,223047.6,
刺激提示,canvas.Screen,10_10_3,2023-01-05T04:30:54.330Z,,,d,true,d,45,823.8999999999942,response,eR.jpg,d,keypress(j),223872.20000001788,223871.5,223030.902,223176.30000001192,223047.6,223740.564,
フィードバック(0.5秒),canvas.Screen,10_10_4,2023-01-05T04:30:54.708Z,,,d,,,45,353.98399999999674,timeout,eR.jpg,,,224249.90000000596,224249.30000001192,223723.801,223872.5,223740.564,224094.548,
トライアル,flow.Sequence,10_10,2023-01-05T04:30:54.708Z,,,d,,,45,2908.5400000119116,completion,eR.jpg,,,224250.5,224249.30000001192,221324.153,221470,221340.76,224094.548,
空白時間1 (0.5秒),canvas.Screen,10_11_0,2023-01-05T04:30:55.059Z,,,d,,,225,363.14299999998184,timeout,eR.jpg,,,224600.90000000596,224600.5,224249.30000001192,224250.80000001192,224094.548,224457.691,
注視(1秒),canvas.Screen,10_11_1,2023-01-05T04:30:55.915Z,,,d,,,225,852.002999999997,timeout,eR.jpg,,,225457,225456.59999999404,224600.5,224601.20000001788,224457.691,225309.694,
空白時間2 (0.5秒),canvas.Screen,10_11_2,2023-01-05T04:30:56.275Z,,,d,,,225,361.2760000000126,timeout,eR.jpg,,,225816.59999999404,225816.20000001788,225456.59999999404,225457.20000001788,225309.694,225670.97,
刺激提示,canvas.Screen,10_11_3,2023-01-05T04:30:57.864Z,,,d,false,d,225,1734.2300000178802,response,eR.jpg,b,keypress(f),227405.59999999404,227405.20000001788,225816.20000001788,225816.90000000596,225670.97,227285.727,
フィードバック(0.5秒),canvas.Screen,10_11_4,2023-01-05T04:30:58.251Z,,,d,,,225,363.69799999997485,timeout,eR.jpg,,,227793.20000001788,227792.80000001192,227269.053,227418.59999999404,227285.727,227649.425,
トライアル,flow.Sequence,10_11,2023-01-05T04:30:58.252Z,,,d,,,225,3698.252000011911,completion,eR.jpg,,,227793.70000001788,227792.80000001192,224249.30000001192,224250.70000001788,224094.548,227649.425,
空白時間1 (0.5秒),canvas.Screen,10_12_0,2023-01-05T04:30:58.737Z,,,b,,,225,501.2060000000056,timeout,e.jpg,,,228279.5,228133.94,227792.80000001192,227794,227649.425,228150.631,
注視(1秒),canvas.Screen,10_12_1,2023-01-05T04:30:59.610Z,,,b,,,225,849.1640000000189,timeout,e.jpg,,,229152.40000000596,229152,228133.94,228279.80000001192,228150.631,228999.795,
空白時間2 (0.5秒),canvas.Screen,10_12_2,2023-01-05T04:31:00.088Z,,,b,,,225,500.5119999999879,timeout,e.jpg,,,229629.80000001192,229484.093,229152,229152.70000001788,228999.795,229500.307,
刺激提示,canvas.Screen,10_12_3,2023-01-05T04:31:01.620Z,,,b,true,b,225,1660.9930000119202,response,e.jpg,b,keypress(f),231162.40000000596,231161.30000001192,229484.093,229629.90000000596,229500.307,231044.834,
フィードバック(0.5秒),canvas.Screen,10_12_4,2023-01-05T04:31:02.127Z,,,b,,,225,495.57600000000093,timeout,e.jpg,,,231668.70000001788,231523.379,231028.146,231184.20000001788,231044.834,231540.41,
トライアル,flow.Sequence,10_12,2023-01-05T04:31:02.127Z,,,b,,,225,3873.953999999998,completion,e.jpg,,,231668.90000000596,231523.379,227792.80000001192,227794,227649.425,231540.41,
空白時間1 (0.5秒),canvas.Screen,10_13_0,2023-01-05T04:31:02.630Z,,,d,,,315,502.5590000000084,timeout,eR.jpg,,,232172.40000000596,232026.345,231523.379,231668.90000000596,231540.41,232042.969,
注視(1秒),canvas.Screen,10_13_1,2023-01-05T04:31:03.499Z,,,d,,,315,852.9499999999825,timeout,eR.jpg,,,233041.09999999404,233040.80000001192,232026.345,232172.80000001192,232042.969,232895.919,
空白時間2 (0.5秒),canvas.Screen,10_13_2,2023-01-05T04:31:03.989Z,,,d,,,315,507.85899999999674,timeout,eR.jpg,,,233531.30000001192,233386.747,233040.80000001192,233041.5,232895.919,233403.778,
刺激提示,canvas.Screen,10_13_3,2023-01-05T04:31:04.687Z,,,d,true,d,315,825.1220000059693,response,eR.jpg,d,keypress(j),234229.40000000596,234228.90000000596,233386.747,233531.40000000596,233403.778,234103.613,
フィードバック(0.5秒),canvas.Screen,10_13_4,2023-01-05T04:31:05.197Z,,,d,,,315,507.50599999999395,timeout,eR.jpg,,,234739.30000001192,234594.468,234086.987,234231.70000001788,234103.613,234611.119,
トライアル,flow.Sequence,10_13,2023-01-05T04:31:05.198Z,,,d,,,315,3054.05799999999,completion,eR.jpg,,,234739.59999999404,234594.468,231523.379,231668.90000000596,231540.41,234611.119,
空白時間1 (0.5秒),canvas.Screen,10_14_0,2023-01-05T04:31:05.578Z,,,b,,,315,365.0929999999935,timeout,e.jpg,,,235120.40000000596,235120,234594.468,234739.70000001788,234611.119,234976.212,
注視(1秒),canvas.Screen,10_14_1,2023-01-05T04:31:06.443Z,,,b,,,315,857.679999999993,timeout,e.jpg,,,235985.09999999404,235985,235120,235120.70000001788,234976.212,235833.892,
空白時間2 (0.5秒),canvas.Screen,10_14_2,2023-01-05T04:31:06.796Z,,,b,,,315,347.3280000000086,timeout,e.jpg,,,236338.40000000596,236338.20000001788,235985,235985.20000001788,235833.892,236181.22,
刺激提示,canvas.Screen,10_14_3,2023-01-05T04:31:07.515Z,,,b,true,b,315,873.7799999999988,response,e.jpg,b,keypress(f),237056.59999999404,237055,236338.20000001788,236338.59999999404,236181.22,236944.273,
フィードバック(0.5秒),canvas.Screen,10_14_4,2023-01-05T04:31:08.039Z,,,b,,,315,507.43700000000536,timeout,e.jpg,,,237581,237435.084,236928.006,237084.70000001788,236944.273,237451.71,
トライアル,flow.Sequence,10_14,2023-01-05T04:31:08.040Z,,,b,,,315,2823.9649999999965,completion,e.jpg,,,237581.70000001788,237435.084,234594.468,234739.70000001788,234611.119,237451.71,
空白時間1 (0.5秒),canvas.Screen,10_15_0,2023-01-05T04:31:08.411Z,,,b,,,135,344.83600000001024,timeout,e.jpg,,,237952.80000001192,237952.40000000596,237435.084,237582,237451.71,237796.546,
注視(1秒),canvas.Screen,10_15_1,2023-01-05T04:31:09.259Z,,,b,,,135,853.5149999999849,timeout,e.jpg,,,238800.59999999404,238800.30000001192,237952.40000000596,237953.20000001788,237796.546,238650.061,
空白時間2 (0.5秒),canvas.Screen,10_15_2,2023-01-05T04:31:09.619Z,,,b,,,135,362.7740000000049,timeout,e.jpg,,,239161.5,239161.09999999404,238800.30000001192,238800.90000000596,238650.061,239012.835,
刺激提示,canvas.Screen,10_15_3,2023-01-05T04:31:10.965Z,,,b,true,b,135,1493.5650000059686,response,e.jpg,b,keypress(f),240506.90000000596,240506.40000000596,239161.09999999404,239162.09999999404,239012.835,240376.477,
フィードバック(0.5秒),canvas.Screen,10_15_4,2023-01-05T04:31:11.347Z,,,b,,,135,365.7829999999958,timeout,e.jpg,,,240889.09999999404,240888.70000001788,240359.826,240507.80000001192,240376.477,240742.26,
トライアル,flow.Sequence,10_15,2023-01-05T04:31:11.348Z,,,b,,,135,3436.9900000178895,completion,e.jpg,,,240889.70000001788,240888.70000001788,237435.084,237582,237451.71,240742.26,
タスクのセット,flow.Loop,10,2023-01-05T04:31:11.348Z,,,,,,,51963.11200001789,completion,,,,240890,240888.70000001788,188908.771,189055.30000001192,188925.588,240742.26,
空白時間1 (0.5秒),canvas.Screen,11_0_0,2023-01-05T04:31:11.832Z,,,b,,,270,502.41499999997905,timeout,e.jpg,,,241373.90000000596,241227.977,240888.70000001788,240890.30000001192,240742.26,241244.675,
注視(1秒),canvas.Screen,11_0_1,2023-01-05T04:31:12.707Z,,,b,,,270,850.38400000002,timeout,e.jpg,,,242249.20000001788,242249,241227.977,241374.20000001788,241244.675,242095.059,
空白時間2 (0.5秒),canvas.Screen,11_0_2,2023-01-05T04:31:13.181Z,,,b,,,270,499.7599999999802,timeout,e.jpg,,,242723.40000000596,242578.191,242249,242249.20000001788,242095.059,242594.819,
刺激提示,canvas.Screen,11_0_3,2023-01-05T04:31:13.812Z,,,b,true,b,270,758.0810000059719,response,e.jpg,b,keypress(f),243354.09999999404,243352.90000000596,242578.191,242723.59999999404,242594.819,243242.679,
フィードバック(0.5秒),canvas.Screen,11_0_4,2023-01-05T04:31:14.322Z,,,b,,,270,493.56099999998696,timeout,e.jpg,,,243863.90000000596,243719.493,243225.955,243380.90000000596,243242.679,243736.24,
トライアル,flow.Sequence,11_0,2023-01-05T04:31:14.322Z,,,b,,,270,2977.2329999999783,completion,e.jpg,,,243864,243719.493,240888.70000001788,240890.20000001788,240742.26,243736.24,
空白時間1 (0.5秒),canvas.Screen,11_1_0,2023-01-05T04:31:14.822Z,,,d,,,315,500.4070000000065,timeout,eR.jpg,,,244364.5,244219.983,243719.493,243864.09999999404,243736.24,244236.647,
注視(1秒),canvas.Screen,11_1_1,2023-01-05T04:31:15.691Z,,,d,,,315,850.3669999999984,timeout,eR.jpg,,,245232.80000001192,245232.40000000596,244219.983,244364.59999999404,244236.647,245087.014,
空白時間2 (0.5秒),canvas.Screen,11_1_2,2023-01-05T04:31:16.051Z,,,d,,,315,359.5230000000156,timeout,eR.jpg,,,245592.90000000596,245592.5,245232.40000000596,245233.09999999404,245087.014,245446.537,
刺激提示,canvas.Screen,11_1_3,2023-01-05T04:31:16.829Z,,,d,true,d,315,923.4629999999888,response,eR.jpg,d,keypress(j),246370.90000000596,246370,245592.5,245593.09999999404,245446.537,246241.6,
フィードバック(0.5秒),canvas.Screen,11_1_4,2023-01-05T04:31:17.334Z,,,d,,,315,505.2149999999965,timeout,eR.jpg,,,246875.70000001788,246730.161,246224.937,246372.09999999404,246241.6,246746.815,
トライアル,flow.Sequence,11_1,2023-01-05T04:31:17.334Z,,,d,,,315,2993.921000000002,completion,eR.jpg,,,246875.80000001192,246730.161,243719.493,243864.09999999404,243736.24,246746.815,
空白時間1 (0.5秒),canvas.Screen,11_2_0,2023-01-05T04:31:17.837Z,,,b,,,315,503.72299999999814,timeout,e.jpg,,,247379.09999999404,247233.712,246730.161,246875.90000000596,246746.815,247250.538,
注視(1秒),canvas.Screen,11_2_1,2023-01-05T04:31:18.707Z,,,b,,,315,844.7309999999998,timeout,e.jpg,,,248249.20000001788,248249.09999999404,247233.712,247379.40000000596,247250.538,248095.269,
空白時間2 (0.5秒),canvas.Screen,11_2_2,2023-01-05T04:31:19.186Z,,,b,,,315,504.75,timeout,e.jpg,,,248728.20000001788,248582.751,248249.09999999404,248249.30000001192,248095.269,248600.019,
刺激提示,canvas.Screen,11_2_3,2023-01-05T04:31:19.752Z,,,b,true,b,315,693.1810000178812,response,e.jpg,b,keypress(f),249294.30000001192,249293.20000001788,248582.751,248728.20000001788,248600.019,249180.966,
フィードバック(0.5秒),canvas.Screen,11_2_4,2023-01-05T04:31:20.269Z,,,b,,,315,501.93600000001607,timeout,e.jpg,,,249810.59999999404,249666.256,249164.281,249316.80000001192,249180.966,249682.902,
トライアル,flow.Sequence,11_2,2023-01-05T04:31:20.269Z,,,b,,,315,2919.4409999999916,completion,e.jpg,,,249810.80000001192,249666.256,246730.161,246875.90000000596,246746.815,249682.902,
空白時間1 (0.5秒),canvas.Screen,11_3_0,2023-01-05T04:31:20.652Z,,,b,,,0,362.89400000000023,timeout,e.jpg,,,250193.70000001788,250193.30000001192,249666.256,249810.90000000596,249682.902,250045.796,
注視(1秒),canvas.Screen,11_3_1,2023-01-05T04:31:21.499Z,,,b,,,0,838.5590000000084,timeout,e.jpg,,,251041.09999999404,251040.70000001788,250193.30000001192,250194,250045.796,250884.355,
空白時間2 (0.5秒),canvas.Screen,11_3_2,2023-01-05T04:31:21.850Z,,,b,,,0,365.26600000000326,timeout,e.jpg,,,251392.5,251392.09999999404,251040.70000001788,251041.40000000596,250884.355,251249.621,
刺激提示,canvas.Screen,11_3_3,2023-01-05T04:31:22.460Z,,,b,true,b,0,750.8789999999863,response,e.jpg,b,keypress(f),252001.70000001788,252000.5,251392.09999999404,251392.80000001192,251249.621,251877.447,
フィードバック(0.5秒),canvas.Screen,11_3_4,2023-01-05T04:31:22.970Z,,,b,,,0,504.7630000000063,timeout,e.jpg,,,252512.09999999404,252365.555,251860.72,252006.80000001192,251877.447,252382.21,
トライアル,flow.Sequence,11_3,2023-01-05T04:31:22.971Z,,,b,,,0,2682.652999999991,completion,e.jpg,,,252513,252365.555,249666.256,249810.90000000596,249682.902,252382.21,
空白時間1 (0.5秒),canvas.Screen,11_4_0,2023-01-05T04:31:23.470Z,,,b,,,135,502.5540000000037,timeout,e.jpg,,,253012.5,252868.117,252365.555,252513.5,252382.21,252884.764,
注視(1秒),canvas.Screen,11_4_1,2023-01-05T04:31:24.339Z,,,b,,,135,842.0370000000112,timeout,e.jpg,,,253880.59999999404,253880.40000000596,252868.117,253012.70000001788,252884.764,253726.801,
空白時間2 (0.5秒),canvas.Screen,11_4_2,2023-01-05T04:31:24.692Z,,,b,,,135,363.1000000000058,timeout,e.jpg,,,254233.70000001788,254233.30000001192,253880.40000000596,253880.70000001788,253726.801,254089.901,
刺激提示,canvas.Screen,11_4_3,2023-01-05T04:31:25.403Z,,,b,false,b,135,854.4990000059479,response,e.jpg,d,keypress(j),254945.5,254944.40000000596,254233.30000001192,254234,254089.901,254838.606,
フィードバック(0.5秒),canvas.Screen,11_4_4,2023-01-05T04:31:25.804Z,,,b,,,135,360.3520000000135,timeout,e.jpg,,,255345.59999999404,255345.5,254821.931,254973.20000001788,254838.606,255198.958,
トライアル,flow.Sequence,11_4,2023-01-05T04:31:25.804Z,,,b,,,135,2963.290000000008,completion,e.jpg,,,255345.70000001788,255345.5,252365.555,252513.30000001192,252382.21,255198.958,
空白時間1 (0.5秒),canvas.Screen,11_5_0,2023-01-05T04:31:26.279Z,,,b,,,180,492.9199999999837,timeout,e.jpg,,,255820.80000001192,255675.184,255345.5,255345.80000001192,255198.958,255691.878,
注視(1秒),canvas.Screen,11_5_1,2023-01-05T04:31:27.147Z,,,b,,,180,841.9049999999988,timeout,e.jpg,,,256689.40000000596,256689,255675.184,255821,255691.878,256533.783,
空白時間2 (0.5秒),canvas.Screen,11_5_2,2023-01-05T04:31:27.619Z,,,b,,,180,499.19700000001467,timeout,e.jpg,,,257161.5,257016.086,256689,256689.70000001788,256533.783,257032.98,
刺激提示,canvas.Screen,11_5_3,2023-01-05T04:31:29.246Z,,,b,true,b,180,1754.3200000119105,response,e.jpg,b,keypress(f),258787.90000000596,258787.30000001192,257016.086,257162.59999999404,257032.98,258672.041,
フィードバック(0.5秒),canvas.Screen,11_5_4,2023-01-05T04:31:29.761Z,,,b,,,180,503.27999999999884,timeout,e.jpg,,,259303.5,259158.545,258654.933,258798.59999999404,258672.041,259175.321,
トライアル,flow.Sequence,11_5,2023-01-05T04:31:29.762Z,,,b,,,180,3959.5869999999995,completion,e.jpg,,,259303.90000000596,259158.545,255345.5,255345.70000001788,255198.958,259175.321,
空白時間1 (0.5秒),canvas.Screen,11_6_0,2023-01-05T04:31:30.139Z,,,b,,,225,356.0100000000093,timeout,e.jpg,,,259681.40000000596,259681.30000001192,259158.545,259304.20000001788,259175.321,259531.331,
注視(1秒),canvas.Screen,11_6_1,2023-01-05T04:31:30.995Z,,,b,,,225,849.9890000000014,timeout,e.jpg,,,260537,260536.70000001788,259681.30000001192,259681.5,259531.331,260381.32,
空白時間2 (0.5秒),canvas.Screen,11_6_2,2023-01-05T04:31:31.472Z,,,b,,,225,504.2049999999872,timeout,e.jpg,,,261013.90000000596,260869.106,260536.70000001788,260537.30000001192,260381.32,260885.525,
刺激提示,canvas.Screen,11_6_3,2023-01-05T04:31:32.229Z,,,b,true,b,225,884.7750000119267,response,e.jpg,b,keypress(f),261770.59999999404,261770.30000001192,260869.106,261014.20000001788,260885.525,261642.955,
フィードバック(0.5秒),canvas.Screen,11_6_4,2023-01-05T04:31:32.722Z,,,b,,,225,492.41700000001583,timeout,e.jpg,,,262263.8000000119,262118.719,261626.262,261771.09999999404,261642.955,262135.372,
トライアル,flow.Sequence,11_6,2023-01-05T04:31:32.722Z,,,b,,,225,2943.3980000000156,completion,e.jpg,,,262264,262118.719,259158.545,259304.09999999404,259175.321,262135.372,
空白時間1 (0.5秒),canvas.Screen,11_7_0,2023-01-05T04:31:33.229Z,,,d,,,225,506.67500000001746,timeout,eR.jpg,,,262770.90000000596,262625.153,262118.719,262264,262135.372,262642.047,
注視(1秒),canvas.Screen,11_7_1,2023-01-05T04:31:34.099Z,,,d,,,225,843.86599999998,timeout,eR.jpg,,,263640.5,263640.40000000596,262625.153,262771.2000000179,262642.047,263485.913,
空白時間2 (0.5秒),canvas.Screen,11_7_2,2023-01-05T04:31:34.452Z,,,d,,,225,363.78999999997905,timeout,eR.jpg,,,263993.59999999404,263993.59999999404,263640.40000000596,263640.59999999404,263485.913,263849.703,
刺激提示,canvas.Screen,11_7_3,2023-01-05T04:31:36.197Z,,,d,true,d,225,1888.2970000000205,response,eR.jpg,d,keypress(j),265738.59999999404,265738,263993.59999999404,263993.7000000179,263849.703,265610.979,
フィードバック(0.5秒),canvas.Screen,11_7_4,2023-01-05T04:31:36.571Z,,,d,,,225,349.32199999998556,timeout,eR.jpg,,,266112.59999999404,266112.5,265594.528,265750,265610.979,265960.301,
トライアル,flow.Sequence,11_7,2023-01-05T04:31:36.571Z,,,d,,,225,3977.127999999997,completion,eR.jpg,,,266112.7000000179,266112.5,262118.719,262264,262135.372,265960.301,
空白時間1 (0.5秒),canvas.Screen,11_8_0,2023-01-05T04:31:36.923Z,,,d,,,270,346.0650000000023,timeout,eR.jpg,,,266465.40000000596,266465,266112.5,266112.8000000119,265960.301,266306.366,
注視(1秒),canvas.Screen,11_8_1,2023-01-05T04:31:37.763Z,,,d,,,270,842.5780000000377,timeout,eR.jpg,,,267305.40000000596,267305.3000000119,266465,266465.7000000179,266306.366,267148.944,
空白時間2 (0.5秒),canvas.Screen,11_8_2,2023-01-05T04:31:38.242Z,,,d,,,270,506.58399999997346,timeout,eR.jpg,,,267784.40000000596,267638.875,267305.3000000119,267305.5,267148.944,267655.528,
刺激提示,canvas.Screen,11_8_3,2023-01-05T04:31:39.358Z,,,d,true,d,270,1242.9720000000088,response,eR.jpg,d,keypress(j),268899.7000000179,268898.5,267638.875,267784.7000000179,267655.528,268784.034,
フィードバック(0.5秒),canvas.Screen,11_8_4,2023-01-05T04:31:39.754Z,,,d,,,270,355.3530000000028,timeout,eR.jpg,,,269296.3000000119,269296.09999999404,268767.51,268920.09999999404,268784.034,269139.387,
トライアル,flow.Sequence,11_8,2023-01-05T04:31:39.755Z,,,d,,,270,3335.798999994062,completion,eR.jpg,,,269296.59999999404,269296.09999999404,266112.5,266112.8000000119,265960.301,269139.387,
空白時間1 (0.5秒),canvas.Screen,11_9_0,2023-01-05T04:31:40.107Z,,,d,,,135,364.92600000003586,timeout,eR.jpg,,,269649.2000000179,269649,269296.09999999404,269296.8000000119,269139.387,269504.313,
注視(1秒),canvas.Screen,11_9_1,2023-01-05T04:31:41.092Z,,,d,,,135,1001.4989999999525,timeout,eR.jpg,,,270634.2000000179,270489.077,269649,269649.2000000179,269504.313,270505.812,
空白時間2 (0.5秒),canvas.Screen,11_9_2,2023-01-05T04:31:41.587Z,,,d,,,135,495.32600000000093,timeout,eR.jpg,,,271129.3000000119,270984.476,270489.077,270635.59999999404,270505.812,271001.138,
刺激提示,canvas.Screen,11_9_3,2023-01-05T04:31:44.341Z,,,d,true,d,135,2881.1620000119437,response,eR.jpg,d,keypress(j),273883,273882.3000000119,270984.476,271129.40000000596,271001.138,273754.811,
フィードバック(0.5秒),canvas.Screen,11_9_4,2023-01-05T04:31:44.843Z,,,d,,,135,502.1730000000098,timeout,eR.jpg,,,274384.5,274239.409,273738.083,273891.40000000596,273754.811,274256.984,
トライアル,flow.Sequence,11_9,2023-01-05T04:31:44.843Z,,,d,,,135,5100.021999999997,completion,eR.jpg,,,274384.90000000596,274239.409,269296.09999999404,269296.8000000119,269139.387,274256.984,
空白時間1 (0.5秒),canvas.Screen,11_10_0,2023-01-05T04:31:45.219Z,,,b,,,45,349.7970000000205,timeout,e.jpg,,,274761.3000000119,274761.2000000179,274239.409,274385.09999999404,274256.984,274606.781,
注視(1秒),canvas.Screen,11_10_1,2023-01-05T04:31:46.067Z,,,b,,,45,856.6369999999879,timeout,e.jpg,,,275608.8000000119,275608.40000000596,274761.2000000179,274761.3000000119,274606.781,275463.418,
空白時間2 (0.5秒),canvas.Screen,11_10_2,2023-01-05T04:31:46.543Z,,,b,,,45,492.69799999997485,timeout,e.jpg,,,276084.90000000596,275939.393,275608.40000000596,275609,275463.418,275956.116,
刺激提示,canvas.Screen,11_10_3,2023-01-05T04:31:47.338Z,,,b,true,b,45,923.2840000059805,response,e.jpg,b,keypress(f),276880.40000000596,276879.40000000596,275939.393,276085.40000000596,275956.116,276773.293,
フィードバック(0.5秒),canvas.Screen,11_10_4,2023-01-05T04:31:47.863Z,,,b,,,45,502.79200000001583,timeout,e.jpg,,,277405.40000000596,277259.419,276756.239,276902.5,276773.293,277276.085,
トライアル,flow.Sequence,11_10,2023-01-05T04:31:47.864Z,,,b,,,45,3002.4349999999977,completion,e.jpg,,,277405.7000000179,277259.419,274239.409,274385.09999999404,274256.984,277276.085,
空白時間1 (0.5秒),canvas.Screen,11_11_0,2023-01-05T04:31:48.236Z,,,d,,,45,347.0709999999963,timeout,eR.jpg,,,277777.90000000596,277777.59999999404,277259.419,277406,277276.085,277623.156,
注視(1秒),canvas.Screen,11_11_1,2023-01-05T04:31:49.210Z,,,d,,,45,1000.9599999999627,timeout,eR.jpg,,,278752.40000000596,278607.385,277777.59999999404,277778.2000000179,277623.156,278624.116,
空白時間2 (0.5秒),canvas.Screen,11_11_2,2023-01-05T04:31:49.595Z,,,d,,,45,365.1390000000247,timeout,eR.jpg,,,279136.8000000119,279136.40000000596,278607.385,278752.59999999404,278624.116,278989.255,
刺激提示,canvas.Screen,11_11_3,2023-01-05T04:31:50.537Z,,,d,true,d,45,1089.4450000178767,response,eR.jpg,d,keypress(j),280078.90000000596,280078.7000000179,279136.40000000596,279137,278989.255,279938.83,
フィードバック(0.5秒),canvas.Screen,11_11_4,2023-01-05T04:31:51.031Z,,,d,,,45,504.84499999997206,timeout,eR.jpg,,,280572.90000000596,280426.791,279922.185,280079.5,279938.83,280443.675,
トライアル,flow.Sequence,11_11,2023-01-05T04:31:51.031Z,,,d,,,45,3150.7060000000056,completion,eR.jpg,,,280573.40000000596,280426.791,277259.419,277405.90000000596,277276.085,280443.675,
空白時間1 (0.5秒),canvas.Screen,11_12_0,2023-01-05T04:31:51.411Z,,,b,,,90,361.32400000002235,timeout,e.jpg,,,280953.2000000179,280952.7000000179,280426.791,280573.59999999404,280443.675,280804.999,
注視(1秒),canvas.Screen,11_12_1,2023-01-05T04:31:52.268Z,,,b,,,90,846.8520000000135,timeout,e.jpg,,,281810.40000000596,281810,280952.7000000179,280953.59999999404,280804.999,281651.851,
空白時間2 (0.5秒),canvas.Screen,11_12_2,2023-01-05T04:31:52.743Z,,,b,,,90,504.23499999998603,timeout,e.jpg,,,282284.7000000179,282139.202,281810,281810.8000000119,281651.851,282156.086,
刺激提示,canvas.Screen,11_12_3,2023-01-05T04:31:53.485Z,,,b,true,b,90,869.2140000119107,response,e.jpg,b,keypress(f),283026.5,283025.3000000119,282139.202,282284.8000000119,282156.086,282910.527,
フィードバック(0.5秒),canvas.Screen,11_12_4,2023-01-05T04:31:53.989Z,,,b,,,90,492.91700000001583,timeout,e.jpg,,,283531.09999999404,283386.501,282893.821,283044.8000000119,282910.527,283403.444,
トライアル,flow.Sequence,11_12,2023-01-05T04:31:53.989Z,,,b,,,90,2942.826000000001,completion,e.jpg,,,283531.2000000179,283386.501,280426.791,280573.59999999404,280443.675,283403.444,
空白時間1 (0.5秒),canvas.Screen,11_13_0,2023-01-05T04:31:54.482Z,,,d,,,0,491.9429999999702,timeout,eR.jpg,,,284024.3000000119,283878.285,283386.501,283531.3000000119,283403.444,283895.387,
注視(1秒),canvas.Screen,11_13_1,2023-01-05T04:31:55.355Z,,,d,,,0,853.0290000000386,timeout,eR.jpg,,,284896.5,284896.2000000179,283878.285,284024.59999999404,283895.387,284748.416,
空白時間2 (0.5秒),canvas.Screen,11_13_2,2023-01-05T04:31:55.830Z,,,d,,,0,494.545999999973,timeout,eR.jpg,,,285372.2000000179,285226.284,284896.2000000179,284896.8000000119,284748.416,285242.962,
刺激提示,canvas.Screen,11_13_3,2023-01-05T04:31:56.519Z,,,d,true,d,0,816.8380000119214,response,eR.jpg,d,keypress(j),286060.7000000179,286059.8000000119,285226.284,285372.3000000119,285242.962,285936.738,
フィードバック(0.5秒),canvas.Screen,11_13_4,2023-01-05T04:31:57.028Z,,,d,,,0,503.9079999999958,timeout,eR.jpg,,,286569.90000000596,286423.984,285919.992,286066.59999999404,285936.738,286440.646,
トライアル,flow.Sequence,11_13,2023-01-05T04:31:57.028Z,,,d,,,0,3020.539999999979,completion,eR.jpg,,,286570.40000000596,286423.984,283386.501,283531.3000000119,283403.444,286440.646,
空白時間1 (0.5秒),canvas.Screen,11_14_0,2023-01-05T04:31:57.403Z,,,d,,,90,348.179999999993,timeout,eR.jpg,,,286944.59999999404,286944.5,286423.984,286570.7000000179,286440.646,286788.826,
注視(1秒),canvas.Screen,11_14_1,2023-01-05T04:31:58.251Z,,,d,,,90,850.9039999999804,timeout,eR.jpg,,,287793.3000000119,287793,286944.5,286944.7000000179,286788.826,287639.73,
空白時間2 (0.5秒),canvas.Screen,11_14_2,2023-01-05T04:31:58.733Z,,,d,,,90,505.7289999999921,timeout,eR.jpg,,,288274.59999999404,288128.756,287793,287793.5,287639.73,288145.459,
刺激提示,canvas.Screen,11_14_3,2023-01-05T04:31:59.654Z,,,d,true,d,90,1050.441000005987,response,eR.jpg,d,keypress(j),289196.40000000596,289195.90000000596,288128.756,288274.8000000119,288145.459,289067.657,
フィードバック(0.5秒),canvas.Screen,11_14_4,2023-01-05T04:32:00.163Z,,,d,,,90,508.06400000001304,timeout,eR.jpg,,,289704.5,289558.982,289050.998,289204.90000000596,289067.657,289575.721,
トライアル,flow.Sequence,11_14,2023-01-05T04:32:00.163Z,,,d,,,90,3118.3360000000102,completion,eR.jpg,,,289705.09999999404,289558.982,286423.984,286570.59999999404,286440.646,289575.721,
空白時間1 (0.5秒),canvas.Screen,11_15_0,2023-01-05T04:32:00.547Z,,,d,,,180,364.51899999997113,timeout,eR.jpg,,,290089,290088.8000000119,289558.982,289705.3000000119,289575.721,289940.24,
注視(1秒),canvas.Screen,11_15_1,2023-01-05T04:32:01.531Z,,,d,,,180,1004.5219999999972,timeout,eR.jpg,,,291072.8000000119,290927.837,290088.8000000119,290089.09999999404,289940.24,290944.762,
空白時間2 (0.5秒),canvas.Screen,11_15_2,2023-01-05T04:32:01.906Z,,,d,,,180,344.08299999998417,timeout,eR.jpg,,,291448.5,291448.40000000596,290927.837,291072.8000000119,290944.762,291288.845,
刺激提示,canvas.Screen,11_15_3,2023-01-05T04:32:04.998Z,,,d,false,d,180,3250.0550000059884,response,eR.jpg,b,keypress(f),294539.90000000596,294538.90000000596,291448.40000000596,291448.59999999404,291288.845,294429.172,
フィードバック(0.5秒),canvas.Screen,11_15_4,2023-01-05T04:32:05.521Z,,,d,,,180,504.8059999999823,timeout,eR.jpg,,,295062.5,294917.07,294412.521,294557,294429.172,294933.978,
トライアル,flow.Sequence,11_15,2023-01-05T04:32:05.521Z,,,d,,,180,5341.348999999987,completion,eR.jpg,,,295062.8000000119,294917.07,289558.982,289705.3000000119,289575.721,294933.978,
タスクのセット,flow.Loop,11,2023-01-05T04:32:05.521Z,,,,,,,54174.81,completion,,,,295063.09999999404,294917.07,240888.70000001788,240890.20000001788,240742.26,294933.978,
空白時間1 (0.5秒),canvas.Screen,12_0_0,2023-01-05T04:32:06.025Z,,,d,,,225,504.42599999997765,timeout,eR.jpg,,,295566.8000000119,295421.675,294917.07,295063.2000000179,294933.978,295438.404,
注視(1秒),canvas.Screen,12_0_1,2023-01-05T04:32:06.899Z,,,d,,,225,855.8890000000247,timeout,eR.jpg,,,296441.40000000596,296441.09999999404,295421.675,295567.09999999404,295438.404,296294.293,
空白時間2 (0.5秒),canvas.Screen,12_0_2,2023-01-05T04:32:07.385Z,,,d,,,225,502.8389999999781,timeout,eR.jpg,,,296926.7000000179,296780.458,296441.09999999404,296441.8000000119,296294.293,296797.132,
刺激提示,canvas.Screen,12_0_3,2023-01-05T04:32:10.749Z,,,d,true,d,225,3492.3680000000168,response,eR.jpg,d,keypress(j),300290.59999999404,300289.5,296780.458,296927,296797.132,300175.911,
フィードバック(0.5秒),canvas.Screen,12_0_4,2023-01-05T04:32:11.140Z,,,d,,,225,349.42399999999907,timeout,eR.jpg,,,300681.5,300681.3000000119,300159.303,300302.90000000596,300175.911,300525.335,
トライアル,flow.Sequence,12_0,2023-01-05T04:32:11.140Z,,,d,,,225,5747.322000011918,completion,eR.jpg,,,300681.59999999404,300681.3000000119,294917.07,295063.2000000179,294933.978,300525.335,
空白時間1 (0.5秒),canvas.Screen,12_1_0,2023-01-05T04:32:11.619Z,,,d,,,315,507.2820000000065,timeout,eR.jpg,,,301160.90000000596,301015.954,300681.3000000119,300681.59999999404,300525.335,301032.617,
注視(1秒),canvas.Screen,12_1_1,2023-01-05T04:32:12.491Z,,,d,,,315,854.7779999999912,timeout,eR.jpg,,,302033,302032.8000000119,301015.954,301161,301032.617,301887.395,
空白時間2 (0.5秒),canvas.Screen,12_1_2,2023-01-05T04:32:12.982Z,,,d,,,315,508.0359999999637,timeout,eR.jpg,,,302524.40000000596,302378.697,302032.8000000119,302033,301887.395,302395.431,
刺激提示,canvas.Screen,12_1_3,2023-01-05T04:32:13.882Z,,,d,true,d,315,1027.8690000119386,response,eR.jpg,d,keypress(j),303423.90000000596,303423.3000000119,302378.697,302524.7000000179,302395.431,303296.356,
フィードバック(0.5秒),canvas.Screen,12_1_4,2023-01-05T04:32:14.259Z,,,d,,,315,361.3529999999446,timeout,eR.jpg,,,303801.2000000179,303800.8000000119,303279.608,303435.8000000119,303296.356,303657.709,
トライアル,flow.Sequence,12_1,2023-01-05T04:32:14.260Z,,,d,,,315,3275.4650000119,completion,eR.jpg,,,303801.8000000119,303800.8000000119,300681.3000000119,300681.59999999404,300525.335,303657.709,
空白時間1 (0.5秒),canvas.Screen,12_2_0,2023-01-05T04:32:14.751Z,,,d,,,0,506.1690000000526,timeout,eR.jpg,,,304292.5,304147.268,303800.8000000119,303802.09999999404,303657.709,304163.878,
注視(1秒),canvas.Screen,12_2_1,2023-01-05T04:32:15.620Z,,,d,,,0,845.5669999999809,timeout,eR.jpg,,,305161.90000000596,305161.7000000179,304147.268,304292.90000000596,304163.878,305009.445,
空白時間2 (0.5秒),canvas.Screen,12_2_2,2023-01-05T04:32:16.099Z,,,d,,,0,503.44899999996414,timeout,eR.jpg,,,305641.2000000179,305496.305,305161.7000000179,305162.09999999404,305009.445,305512.894,
刺激提示,canvas.Screen,12_2_3,2023-01-05T04:32:16.806Z,,,d,true,d,0,834.8060000179103,response,eR.jpg,d,keypress(j),306348.2000000179,306347.7000000179,305496.305,305641.59999999404,305512.894,306209.582,
フィードバック(0.5秒),canvas.Screen,12_2_4,2023-01-05T04:32:17.289Z,,,d,,,0,493.2870000000112,timeout,eR.jpg,,,306830.59999999404,306685.654,306192.97,306348.90000000596,306209.582,306702.869,
トライアル,flow.Sequence,12_2,2023-01-05T04:32:17.289Z,,,d,,,0,3027.945000000007,completion,eR.jpg,,,306830.8000000119,306685.654,303800.8000000119,303802.09999999404,303657.709,306702.869,
空白時間1 (0.5秒),canvas.Screen,12_3_0,2023-01-05T04:32:17.792Z,,,b,,,90,502.52999999996973,timeout,e.jpg,,,307333.5,307188.648,306685.654,306830.90000000596,306702.869,307205.399,
注視(1秒),canvas.Screen,12_3_1,2023-01-05T04:32:18.659Z,,,b,,,90,844.1710000000312,timeout,e.jpg,,,308200.8000000119,308200.7000000179,307188.648,307333.7000000179,307205.399,308049.57,
空白時間2 (0.5秒),canvas.Screen,12_3_2,2023-01-05T04:32:19.011Z,,,b,,,90,349.29099999996834,timeout,e.jpg,,,308553.3000000119,308553.3000000119,308200.7000000179,308200.8000000119,308049.57,308398.861,
刺激提示,canvas.Screen,12_3_3,2023-01-05T04:32:19.865Z,,,b,true,b,90,1006.2389999940642,response,e.jpg,b,keypress(f),309406.59999999404,309405.09999999404,308553.3000000119,308553.40000000596,308398.861,309292.424,
フィードバック(0.5秒),canvas.Screen,12_3_4,2023-01-05T04:32:20.374Z,,,b,,,90,494.3489999999874,timeout,e.jpg,,,309916.2000000179,309769.878,309275.673,309434.90000000596,309292.424,309786.773,
トライアル,flow.Sequence,12_3,2023-01-05T04:32:20.375Z,,,b,,,90,3067.00900000002,completion,e.jpg,,,309916.8000000119,309769.878,306685.654,306830.8000000119,306702.869,309786.773,
空白時間1 (0.5秒),canvas.Screen,12_4_0,2023-01-05T04:32:20.754Z,,,d,,,90,364.63099999999395,timeout,eR.jpg,,,310296.5,310296.09999999404,309769.878,309917,309786.773,310151.404,
注視(1秒),canvas.Screen,12_4_1,2023-01-05T04:32:21.611Z,,,d,,,90,856.1220000000321,timeout,eR.jpg,,,311152.90000000596,311152.5,310296.09999999404,310296.7000000179,310151.404,311007.526,
空白時間2 (0.5秒),canvas.Screen,12_4_2,2023-01-05T04:32:21.970Z,,,d,,,90,360.0320000000065,timeout,eR.jpg,,,311512.5,311512,311152.5,311153.09999999404,311007.526,311367.558,
刺激提示,canvas.Screen,12_4_3,2023-01-05T04:32:22.705Z,,,d,true,d,90,877.8420000059414,response,eR.jpg,d,keypress(j),312246.59999999404,312245.40000000596,311512,311512.8000000119,311367.558,312114.897,
フィードバック(0.5秒),canvas.Screen,12_4_4,2023-01-05T04:32:23.197Z,,,d,,,90,494.64400000002934,timeout,eR.jpg,,,312738.59999999404,312592.698,312097.863,312248.59999999404,312114.897,312609.541,
トライアル,flow.Sequence,12_4,2023-01-05T04:32:23.197Z,,,d,,,90,2805.9249999999884,completion,eR.jpg,,,312739,312592.698,309769.878,309917,309786.773,312609.541,
空白時間1 (0.5秒),canvas.Screen,12_5_0,2023-01-05T04:32:23.688Z,,,b,,,225,493.2049999999581,timeout,e.jpg,,,313229.8000000119,313085.024,312592.698,312739.3000000119,312609.541,313102.746,
注視(1秒),canvas.Screen,12_5_1,2023-01-05T04:32:24.564Z,,,b,,,225,852.8220000000438,timeout,e.jpg,,,314105.59999999404,314105.2000000179,313085.024,313229.8000000119,313102.746,313955.568,
空白時間2 (0.5秒),canvas.Screen,12_5_2,2023-01-05T04:32:25.044Z,,,b,,,225,501.966999999946,timeout,e.jpg,,,314585.5,314440.826,314105.2000000179,314105.8000000119,313955.568,314457.535,
刺激提示,canvas.Screen,12_5_3,2023-01-05T04:32:26.547Z,,,b,true,b,225,1630.7650000119465,response,e.jpg,b,keypress(f),316089.3000000119,316088.3000000119,314440.826,314585.59999999404,314457.535,315974.229,
フィードバック(0.5秒),canvas.Screen,12_5_4,2023-01-05T04:32:26.938Z,,,b,,,225,349.3770000000368,timeout,e.jpg,,,316480.2000000179,316480.09999999404,315957.415,316111.3000000119,315974.229,316323.606,
トライアル,flow.Sequence,12_5,2023-01-05T04:32:26.938Z,,,b,,,225,3870.558999994013,completion,e.jpg,,,316480.3000000119,316480.09999999404,312592.698,312739.2000000179,312609.541,316323.606,
空白時間1 (0.5秒),canvas.Screen,12_6_0,2023-01-05T04:32:27.411Z,,,b,,,135,500.73499999998603,timeout,e.jpg,,,316953,316807.718,316480.09999999404,316480.40000000596,316323.606,316824.341,
注視(1秒),canvas.Screen,12_6_1,2023-01-05T04:32:28.283Z,,,b,,,135,847.5109999999986,timeout,e.jpg,,,317825.2000000179,317824.7000000179,316807.718,316953.09999999404,316824.341,317671.852,
空白時間2 (0.5秒),canvas.Screen,12_6_2,2023-01-05T04:32:28.754Z,,,b,,,135,496.14000000001397,timeout,e.jpg,,,318296.40000000596,318151.355,317824.7000000179,317825.59999999404,317671.852,318167.992,
刺激提示,canvas.Screen,12_6_3,2023-01-05T04:32:30.544Z,,,b,true,b,135,1917.607999994012,response,e.jpg,b,keypress(f),320086.09999999404,320085.59999999404,318151.355,318296.59999999404,318167.992,319960.003,
フィードバック(0.5秒),canvas.Screen,12_6_4,2023-01-05T04:32:30.924Z,,,b,,,135,347.29999999998836,timeout,e.jpg,,,320465.5,320465.40000000596,319943.336,320093.5,319960.003,320307.303,
トライアル,flow.Sequence,12_6,2023-01-05T04:32:30.924Z,,,b,,,135,4141.794000005932,completion,e.jpg,,,320465.59999999404,320465.40000000596,316480.09999999404,316480.3000000119,316323.606,320307.303,
空白時間1 (0.5秒),canvas.Screen,12_7_0,2023-01-05T04:32:31.398Z,,,b,,,45,503.7969999999623,timeout,e.jpg,,,320939.7000000179,320794.435,320465.40000000596,320465.59999999404,320307.303,320811.1,
注視(1秒),canvas.Screen,12_7_1,2023-01-05T04:32:32.275Z,,,b,,,45,855.7980000000098,timeout,e.jpg,,,321817.2000000179,321816.8000000119,320794.435,320940,320811.1,321666.898,
空白時間2 (0.5秒),canvas.Screen,12_7_2,2023-01-05T04:32:32.759Z,,,b,,,45,506.51800000004005,timeout,e.jpg,,,322301.09999999404,322156.789,321816.8000000119,321817.7000000179,321666.898,322173.416,
刺激提示,canvas.Screen,12_7_3,2023-01-05T04:32:33.699Z,,,b,true,b,45,1067.183999994013,response,e.jpg,b,keypress(f),323241.09999999404,323240.59999999404,322156.789,322301.2000000179,322173.416,323116.811,
フィードバック(0.5秒),canvas.Screen,12_7_4,2023-01-05T04:32:34.084Z,,,b,,,45,365.59600000001956,timeout,e.jpg,,,323625.5,323625.40000000596,323098.935,323249.59999999404,323116.811,323482.407,
トライアル,flow.Sequence,12_7,2023-01-05T04:32:34.084Z,,,b,,,45,3318.097000005946,completion,e.jpg,,,323625.8000000119,323625.40000000596,320465.40000000596,320465.59999999404,320307.303,323482.407,
空白時間1 (0.5秒),canvas.Screen,12_8_0,2023-01-05T04:32:34.444Z,,,d,,,270,347.9529999999795,timeout,eR.jpg,,,323986.09999999404,323985.59999999404,323625.40000000596,323625.8000000119,323482.407,323830.36,
注視(1秒),canvas.Screen,12_8_1,2023-01-05T04:32:35.290Z,,,d,,,270,846.3539999999921,timeout,eR.jpg,,,324832.40000000596,324832.3000000119,323985.59999999404,323986.3000000119,323830.36,324676.714,
空白時間2 (0.5秒),canvas.Screen,12_8_2,2023-01-05T04:32:35.758Z,,,d,,,270,494.77900000003865,timeout,eR.jpg,,,325299.7000000179,325154.764,324832.3000000119,324832.5,324676.714,325171.493,
刺激提示,canvas.Screen,12_8_3,2023-01-05T04:32:36.731Z,,,d,true,d,270,1100.0069999999832,response,eR.jpg,d,keypress(j),326272.59999999404,326271.5,325154.764,325299.90000000596,325171.493,326149.924,
フィードバック(0.5秒),canvas.Screen,12_8_4,2023-01-05T04:32:37.240Z,,,d,,,270,504.70000000001164,timeout,eR.jpg,,,326782.2000000179,326637.917,326133.229,326277.40000000596,326149.924,326654.624,
トライアル,flow.Sequence,12_8,2023-01-05T04:32:37.240Z,,,d,,,270,3155.5100000000093,completion,eR.jpg,,,326782.3000000119,326637.917,323625.40000000596,323625.8000000119,323482.407,326654.624,
空白時間1 (0.5秒),canvas.Screen,12_9_0,2023-01-05T04:32:37.612Z,,,d,,,180,342.27899999998044,timeout,eR.jpg,,,327153.7000000179,327153.3000000119,326637.917,326782.40000000596,326654.624,326996.903,
注視(1秒),canvas.Screen,12_9_1,2023-01-05T04:32:38.450Z,,,d,,,180,842.3969999999972,timeout,eR.jpg,,,327992.40000000596,327992.09999999404,327153.3000000119,327153.90000000596,326996.903,327839.3,
空白時間2 (0.5秒),canvas.Screen,12_9_2,2023-01-05T04:32:38.930Z,,,d,,,180,504.18700000003446,timeout,eR.jpg,,,328472.3000000119,328326.822,327992.09999999404,327992.40000000596,327839.3,328343.487,
刺激提示,canvas.Screen,12_9_3,2023-01-05T04:32:42.253Z,,,d,false,d,180,3451.1129999940167,response,eR.jpg,b,keypress(f),331795,331794.59999999404,328326.822,328472.59999999404,328343.487,331660.999,
フィードバック(0.5秒),canvas.Screen,12_9_4,2023-01-05T04:32:42.627Z,,,d,,,180,364.6149999999907,timeout,eR.jpg,,,332169.3000000119,332168.90000000596,331644.337,331803.59999999404,331660.999,332025.614,
トライアル,flow.Sequence,12_9,2023-01-05T04:32:42.628Z,,,d,,,180,5514.27600000595,completion,eR.jpg,,,332169.7000000179,332168.90000000596,326637.917,326782.40000000596,326654.624,332025.614,
空白時間1 (0.5秒),canvas.Screen,12_10_0,2023-01-05T04:32:43.117Z,,,b,,,180,504.8040000000037,timeout,e.jpg,,,332659.2000000179,332513.755,332168.90000000596,332170.09999999404,332025.614,332530.418,
注視(1秒),canvas.Screen,12_10_1,2023-01-05T04:32:43.995Z,,,b,,,180,853.8790000000154,timeout,e.jpg,,,333537.40000000596,333537.09999999404,332513.755,332659.5,332530.418,333384.297,
空白時間2 (0.5秒),canvas.Screen,12_10_2,2023-01-05T04:32:44.465Z,,,b,,,180,494.15200000000186,timeout,e.jpg,,,334006.90000000596,333861.302,333537.09999999404,333537.40000000596,333384.297,333878.449,
刺激提示,canvas.Screen,12_10_3,2023-01-05T04:32:46.174Z,,,b,true,b,180,1837.451000005938,response,e.jpg,b,keypress(f),335716.3000000119,335715.90000000596,333861.302,334007.09999999404,333878.449,335592.647,
フィードバック(0.5秒),canvas.Screen,12_10_4,2023-01-05T04:32:46.684Z,,,b,,,180,503.8969999999972,timeout,e.jpg,,,336225.59999999404,336079.805,335575.948,335727.2000000179,335592.647,336096.544,
トライアル,flow.Sequence,12_10,2023-01-05T04:32:46.684Z,,,b,,,180,4054.1909999999916,completion,e.jpg,,,336226.09999999404,336079.805,332168.90000000596,332170.09999999404,332025.614,336096.544,
空白時間1 (0.5秒),canvas.Screen,12_11_0,2023-01-05T04:32:47.178Z,,,b,,,315,494.0219999999972,timeout,e.jpg,,,336719.8000000119,336573.867,336079.805,336226.3000000119,336096.544,336590.566,
注視(1秒),canvas.Screen,12_11_1,2023-01-05T04:32:48.051Z,,,b,,,315,843.4440000000177,timeout,e.jpg,,,337592.90000000596,337592.7000000179,336573.867,336720.09999999404,336590.566,337434.01,
空白時間2 (0.5秒),canvas.Screen,12_11_2,2023-01-05T04:32:48.403Z,,,b,,,315,363.6030000000028,timeout,e.jpg,,,337945.40000000596,337945.3000000119,337592.7000000179,337593.09999999404,337434.01,337797.613,
刺激提示,canvas.Screen,12_11_3,2023-01-05T04:32:49.116Z,,,b,true,b,315,858.6870000119088,response,e.jpg,b,keypress(f),338658.09999999404,338656.3000000119,337945.3000000119,337945.5,337797.613,338519.013,
フィードバック(0.5秒),canvas.Screen,12_11_4,2023-01-05T04:32:49.607Z,,,b,,,315,501.2719999999972,timeout,e.jpg,,,339149.40000000596,339003.636,338502.32,338660.59999999404,338519.013,339020.285,
トライアル,flow.Sequence,12_11,2023-01-05T04:32:49.608Z,,,b,,,315,2907.092000000004,completion,e.jpg,,,339149.7000000179,339003.636,336079.805,336226.3000000119,336096.544,339020.285,
空白時間1 (0.5秒),canvas.Screen,12_12_0,2023-01-05T04:32:50.113Z,,,b,,,270,506.954000000027,timeout,e.jpg,,,339655.5,339510.578,339003.636,339149.90000000596,339020.285,339527.239,
注視(1秒),canvas.Screen,12_12_1,2023-01-05T04:32:50.987Z,,,b,,,270,846.3850000000093,timeout,e.jpg,,,340529.40000000596,340529.09999999404,339510.578,339655.7000000179,339527.239,340373.624,
空白時間2 (0.5秒),canvas.Screen,12_12_2,2023-01-05T04:32:51.340Z,,,b,,,270,363.1959999999963,timeout,e.jpg,,,340881.7000000179,340881.3000000119,340529.09999999404,340529.59999999404,340373.624,340736.82,
刺激提示,canvas.Screen,12_12_3,2023-01-05T04:32:52.299Z,,,b,true,b,270,1104.0800000059535,response,e.jpg,b,keypress(f),341841.40000000596,341840.90000000596,340881.3000000119,340882,340736.82,341712.412,
フィードバック(0.5秒),canvas.Screen,12_12_4,2023-01-05T04:32:52.790Z,,,b,,,270,492.14299999998184,timeout,e.jpg,,,342332.09999999404,342187.916,341695.641,341853.2000000179,341712.412,342204.555,
トライアル,flow.Sequence,12_12,2023-01-05T04:32:52.790Z,,,b,,,270,3167.631000000052,completion,e.jpg,,,342332.3000000119,342187.916,339003.636,339149.8000000119,339020.285,342204.555,
空白時間1 (0.5秒),canvas.Screen,12_13_0,2023-01-05T04:32:53.293Z,,,b,,,0,501.5929999999935,timeout,e.jpg,,,342834.90000000596,342689.49,342187.916,342332.40000000596,342204.555,342706.148,
注視(1秒),canvas.Screen,12_13_1,2023-01-05T04:32:54.164Z,,,b,,,0,841.6959999999963,timeout,e.jpg,,,343706.5,343706.2000000179,342689.49,342835.09999999404,342706.148,343547.844,
空白時間2 (0.5秒),canvas.Screen,12_13_2,2023-01-05T04:32:54.636Z,,,b,,,0,501.5140000000247,timeout,e.jpg,,,344177.90000000596,344032.715,343706.2000000179,343706.7000000179,343547.844,344049.358,
刺激提示,canvas.Screen,12_13_3,2023-01-05T04:32:55.725Z,,,b,true,b,0,1216.241999994032,response,e.jpg,b,keypress(f),345266.59999999404,345265.59999999404,344032.715,344178.09999999404,344049.358,345156.384,
フィードバック(0.5秒),canvas.Screen,12_13_4,2023-01-05T04:32:56.247Z,,,b,,,0,504.3269999999902,timeout,e.jpg,,,345788.8000000119,345644.017,345139.716,345283.09999999404,345156.384,345660.711,
トライアル,flow.Sequence,12_13,2023-01-05T04:32:56.247Z,,,b,,,0,3439.4619999999995,completion,e.jpg,,,345789.3000000119,345644.017,342187.916,342332.40000000596,342204.555,345660.711,
空白時間1 (0.5秒),canvas.Screen,12_14_0,2023-01-05T04:32:56.740Z,,,d,,,45,493.3889999999665,timeout,eR.jpg,,,346282.40000000596,346137.115,345644.017,345789.59999999404,345660.711,346154.1,
注視(1秒),canvas.Screen,12_14_1,2023-01-05T04:32:57.611Z,,,d,,,45,852.0960000000196,timeout,eR.jpg,,,347152.90000000596,347152.40000000596,346137.115,346282.5,346154.1,347006.196,
空白時間2 (0.5秒),canvas.Screen,12_14_2,2023-01-05T04:32:58.087Z,,,d,,,45,494.3520000000135,timeout,eR.jpg,,,347629.2000000179,347483.862,347152.40000000596,347153.2000000179,347006.196,347500.548,
刺激提示,canvas.Screen,12_14_3,2023-01-05T04:32:58.783Z,,,d,true,d,45,824.2520000119112,response,eR.jpg,d,keypress(j),348325.3000000119,348324.8000000119,347483.862,347629.3000000119,347500.548,348192.118,
フィードバック(0.5秒),canvas.Screen,12_14_4,2023-01-05T04:32:59.273Z,,,d,,,45,494.625,timeout,eR.jpg,,,348815.2000000179,348669.972,348175.38,348326.3000000119,348192.118,348686.743,
トライアル,flow.Sequence,12_14,2023-01-05T04:32:59.274Z,,,d,,,45,3009.2609999999986,completion,eR.jpg,,,348815.8000000119,348669.972,345644.017,345789.5,345660.711,348686.743,
空白時間1 (0.5秒),canvas.Screen,12_15_0,2023-01-05T04:32:59.651Z,,,d,,,135,349.3429999999935,timeout,eR.jpg,,,349193.2000000179,349193.09999999404,348669.972,348816,348686.743,349036.086,
注視(1秒),canvas.Screen,12_15_1,2023-01-05T04:33:00.490Z,,,d,,,135,845.9839999999967,timeout,eR.jpg,,,350032.40000000596,350032.2000000179,349193.09999999404,349193.3000000119,349036.086,349882.07,
空白時間2 (0.5秒),canvas.Screen,12_15_2,2023-01-05T04:33:00.843Z,,,d,,,135,346.63099999999395,timeout,eR.jpg,,,350385.09999999404,350384.7000000179,350032.2000000179,350032.5,349882.07,350228.701,
刺激提示,canvas.Screen,12_15_3,2023-01-05T04:33:03.436Z,,,d,true,d,135,2747.8989999940386,response,eR.jpg,d,keypress(j),352977.59999999404,352976.59999999404,350384.7000000179,350385.3000000119,350228.701,352873.479,
フィードバック(0.5秒),canvas.Screen,12_15_4,2023-01-05T04:33:03.835Z,,,d,,,135,347.32400000002235,timeout,eR.jpg,,,353377.3000000119,353376.90000000596,352856.843,353002.7000000179,352873.479,353220.803,
トライアル,flow.Sequence,12_15,2023-01-05T04:33:03.836Z,,,d,,,135,4690.157000005944,completion,eR.jpg,,,353377.90000000596,353376.90000000596,348669.972,348815.90000000596,348686.743,353220.803,
タスクのセット,flow.Loop,12,2023-01-05T04:33:03.836Z,,,,,,,58442.92200000596,completion,,,,353378.40000000596,353376.90000000596,294917.07,295063.09999999404,294933.978,353220.803,
空白時間1 (0.5秒),canvas.Screen,13_0_0,2023-01-05T04:33:04.189Z,,,b,,,90,362.23099999997066,timeout,e.jpg,,,353730.59999999404,353730.2000000179,353376.90000000596,353378.7000000179,353220.803,353583.034,
注視(1秒),canvas.Screen,13_0_1,2023-01-05T04:33:05.034Z,,,b,,,90,843.6070000000182,timeout,e.jpg,,,354576.3000000119,354576.3000000119,353730.2000000179,353730.90000000596,353583.034,354426.641,
空白時間2 (0.5秒),canvas.Screen,13_0_2,2023-01-05T04:33:05.515Z,,,b,,,90,501.2600000000093,timeout,e.jpg,,,355056.5,354911.259,354576.3000000119,354576.40000000596,354426.641,354927.901,
刺激提示,canvas.Screen,13_0_3,2023-01-05T04:33:06.180Z,,,b,true,b,90,791.5989999999874,response,e.jpg,b,keypress(f),355721.8000000119,355719.5,354911.259,355056.8000000119,354927.901,355615.655,
フィードバック(0.5秒),canvas.Screen,13_0_4,2023-01-05T04:33:06.579Z,,,b,,,90,356.8879999999772,timeout,e.jpg,,,356120.59999999404,356120.09999999404,355598.927,355746.8000000119,355615.655,355972.543,
トライアル,flow.Sequence,13_0,2023-01-05T04:33:06.579Z,,,b,,,90,2899.296999994025,completion,e.jpg,,,356121.2000000179,356120.09999999404,353376.90000000596,353378.59999999404,353220.803,355972.543,
空白時間1 (0.5秒),canvas.Screen,13_1_0,2023-01-05T04:33:07.067Z,,,b,,,270,506.59799999999814,timeout,e.jpg,,,356608.90000000596,356462.431,356120.09999999404,356121.40000000596,355972.543,356479.141,
注視(1秒),canvas.Screen,13_1_1,2023-01-05T04:33:07.939Z,,,b,,,270,849.6379999999772,timeout,e.jpg,,,357481.3000000119,357481,356462.431,356609,356479.141,357328.779,
空白時間2 (0.5秒),canvas.Screen,13_1_2,2023-01-05T04:33:08.422Z,,,b,,,270,507.6480000000447,timeout,e.jpg,,,357964.2000000179,357819.786,357481,357481.59999999404,357328.779,357836.427,
刺激提示,canvas.Screen,13_1_3,2023-01-05T04:33:09.885Z,,,b,true,b,270,1589.0729999999749,response,e.jpg,b,keypress(f),359427,359425.5,357819.786,357964.59999999404,357836.427,359315.97,
フィードバック(0.5秒),canvas.Screen,13_1_4,2023-01-05T04:33:10.409Z,,,b,,,270,507.8870000000461,timeout,e.jpg,,,359951.5,359807.215,359299.336,359449.7000000179,359315.97,359823.857,
トライアル,flow.Sequence,13_1,2023-01-05T04:33:10.410Z,,,b,,,270,3834.6720000000205,completion,e.jpg,,,359951.5,359807.215,356120.09999999404,356121.40000000596,355972.543,359823.857,
空白時間1 (0.5秒),canvas.Screen,13_2_0,2023-01-05T04:33:10.918Z,,,d,,,135,508.10899999999674,timeout,eR.jpg,,,360460,360315.258,359807.215,359951.59999999404,359823.857,360331.966,
注視(1秒),canvas.Screen,13_2_1,2023-01-05T04:33:11.788Z,,,d,,,135,846.3379999999888,timeout,eR.jpg,,,361330.5,361330.09999999404,360315.258,360460.09999999404,360331.966,361178.304,
空白時間2 (0.5秒),canvas.Screen,13_2_2,2023-01-05T04:33:12.258Z,,,d,,,135,494.3399999999674,timeout,eR.jpg,,,361800,361655.964,361330.09999999404,361330.8000000119,361178.304,361672.644,
刺激提示,canvas.Screen,13_2_3,2023-01-05T04:33:13.918Z,,,d,true,d,135,1786.2560000059893,response,eR.jpg,d,keypress(j),363460.40000000596,363458.90000000596,361655.964,361800.09999999404,361672.644,363342.352,
フィードバック(0.5秒),canvas.Screen,13_2_4,2023-01-05T04:33:14.307Z,,,d,,,135,358.13000000000466,timeout,eR.jpg,,,363848.7000000179,363848.5,363325.935,363485,363342.352,363700.482,
トライアル,flow.Sequence,13_2,2023-01-05T04:33:14.307Z,,,d,,,135,4024.642999999982,completion,eR.jpg,,,363849.09999999404,363848.5,359807.215,359951.59999999404,359823.857,363700.482,
空白時間1 (0.5秒),canvas.Screen,13_3_0,2023-01-05T04:33:14.789Z,,,b,,,0,502.475999999966,timeout,e.jpg,,,364330.90000000596,364186.541,363848.5,363849.2000000179,363700.482,364202.958,
注視(1秒),canvas.Screen,13_3_1,2023-01-05T04:33:15.798Z,,,b,,,0,1007.5819999999949,timeout,e.jpg,,,365340,365193.873,364186.541,364331,364202.958,365210.54,
空白時間2 (0.5秒),canvas.Screen,13_3_2,2023-01-05T04:33:16.291Z,,,b,,,0,493.03100000001723,timeout,e.jpg,,,365832.5,365686.898,365193.873,365340.3000000119,365210.54,365703.571,
刺激提示,canvas.Screen,13_3_3,2023-01-05T04:33:16.843Z,,,b,true,b,0,681.2290000119247,response,e.jpg,b,keypress(f),366385.40000000596,366384.8000000119,365686.898,365832.8000000119,365703.571,366249.029,
フィードバック(0.5秒),canvas.Screen,13_3_4,2023-01-05T04:33:17.336Z,,,b,,,0,501.4230000000098,timeout,e.jpg,,,366878.40000000596,366733.774,366232.357,366386.2000000179,366249.029,366750.452,
トライアル,flow.Sequence,13_3,2023-01-05T04:33:17.336Z,,,b,,,0,3033.2919999999576,completion,e.jpg,,,366878.59999999404,366733.774,363848.5,363849.2000000179,363700.482,366750.452,
空白時間1 (0.5秒),canvas.Screen,13_4_0,2023-01-05T04:33:17.715Z,,,d,,,90,363.99599999998463,timeout,eR.jpg,,,367257.09999999404,367256.7000000179,366733.774,366878.59999999404,366750.452,367114.448,
注視(1秒),canvas.Screen,13_4_1,2023-01-05T04:33:18.572Z,,,d,,,90,842.8720000000321,timeout,eR.jpg,,,368113.90000000596,368113.5,367256.7000000179,367257.40000000596,367114.448,367957.32,
空白時間2 (0.5秒),canvas.Screen,13_4_2,2023-01-05T04:33:19.037Z,,,d,,,90,493.48399999999674,timeout,eR.jpg,,,368578.8000000119,368434.126,368113.5,368114.09999999404,367957.32,368450.804,
刺激提示,canvas.Screen,13_4_3,2023-01-05T04:33:19.814Z,,,d,true,d,90,904.3960000178777,response,eR.jpg,d,keypress(j),369356.3000000119,369355.2000000179,368434.126,368579,368450.804,369237.048,
フィードバック(0.5秒),canvas.Screen,13_4_4,2023-01-05T04:33:20.329Z,,,d,,,90,504.91300000000047,timeout,eR.jpg,,,369870.59999999404,369725.289,369220.404,369377.3000000119,369237.048,369741.961,
トライアル,flow.Sequence,13_4,2023-01-05T04:33:20.329Z,,,d,,,90,2974.8369999999995,completion,eR.jpg,,,369870.7000000179,369725.289,366733.774,366878.59999999404,366750.452,369741.961,
空白時間1 (0.5秒),canvas.Screen,13_5_0,2023-01-05T04:33:20.707Z,,,d,,,180,348.32600000000093,timeout,eR.jpg,,,370249,370248.7000000179,369725.289,369870.8000000119,369741.961,370090.287,
注視(1秒),canvas.Screen,13_5_1,2023-01-05T04:33:21.555Z,,,d,,,180,855.5819999999949,timeout,eR.jpg,,,371097.09999999404,371097,370248.7000000179,370249.3000000119,370090.287,370945.869,
空白時間2 (0.5秒),canvas.Screen,13_5_2,2023-01-05T04:33:21.907Z,,,d,,,180,347.3979999999865,timeout,eR.jpg,,,371448.8000000119,371448.59999999404,371097,371097.2000000179,370945.869,371293.267,
刺激提示,canvas.Screen,13_5_3,2023-01-05T04:33:24.086Z,,,d,true,d,180,2334.0330000119284,response,eR.jpg,d,keypress(j),373627.7000000179,373627.3000000119,371448.59999999404,371448.8000000119,371293.267,373506.761,
フィードバック(0.5秒),canvas.Screen,13_5_4,2023-01-05T04:33:24.595Z,,,d,,,180,501.0590000000084,timeout,eR.jpg,,,374137.3000000119,373991.146,373490.086,373636.5,373506.761,374007.82,
トライアル,flow.Sequence,13_5,2023-01-05T04:33:24.596Z,,,d,,,180,4249.184999999998,completion,eR.jpg,,,374137.8000000119,373991.146,369725.289,369870.7000000179,369741.961,374007.82,
空白時間1 (0.5秒),canvas.Screen,13_6_0,2023-01-05T04:33:25.097Z,,,d,,,225,502.625,timeout,eR.jpg,,,374639.09999999404,374493.761,373991.146,374138.09999999404,374007.82,374510.445,
注視(1秒),canvas.Screen,13_6_1,2023-01-05T04:33:25.964Z,,,d,,,225,841.5029999999679,timeout,eR.jpg,,,375505.59999999404,375505.40000000596,374493.761,374639.40000000596,374510.445,375351.948,
空白時間2 (0.5秒),canvas.Screen,13_6_2,2023-01-05T04:33:26.442Z,,,d,,,225,503.13100000005215,timeout,eR.jpg,,,375983.7000000179,375838.429,375505.40000000596,375505.7000000179,375351.948,375855.079,
刺激提示,canvas.Screen,13_6_3,2023-01-05T04:33:27.994Z,,,d,true,d,225,1679.920999999973,response,eR.jpg,d,keypress(j),377535.59999999404,377535,375838.429,375984,375855.079,377414.759,
フィードバック(0.5秒),canvas.Screen,13_6_4,2023-01-05T04:33:28.380Z,,,d,,,225,349.679999999993,timeout,eR.jpg,,,377921.90000000596,377921.40000000596,377398.096,377543.8000000119,377414.759,377764.439,
トライアル,flow.Sequence,13_6,2023-01-05T04:33:28.380Z,,,d,,,225,3913.5800000059535,completion,eR.jpg,,,377922.40000000596,377921.40000000596,373991.146,374138,374007.82,377764.439,
空白時間1 (0.5秒),canvas.Screen,13_7_0,2023-01-05T04:33:28.844Z,,,b,,,180,492.04899999999907,timeout,e.jpg,,,378386.09999999404,378239.823,377921.40000000596,377922.8000000119,377764.439,378256.488,
注視(1秒),canvas.Screen,13_7_1,2023-01-05T04:33:29.715Z,,,b,,,180,850.4239999999991,timeout,e.jpg,,,379256.90000000596,379256.5,378239.823,378386.3000000119,378256.488,379106.912,
空白時間2 (0.5秒),canvas.Screen,13_7_2,2023-01-05T04:33:30.194Z,,,b,,,180,500.50500000000466,timeout,e.jpg,,,379735.8000000119,379590.733,379256.5,379257.3000000119,379106.912,379607.417,
刺激提示,canvas.Screen,13_7_3,2023-01-05T04:33:31.125Z,,,b,true,b,180,1058.7830000178656,response,e.jpg,b,keypress(f),380667.3000000119,380666.2000000179,379590.733,379735.90000000596,379607.417,380541.711,
フィードバック(0.5秒),canvas.Screen,13_7_4,2023-01-05T04:33:31.506Z,,,b,,,180,349.1609999999637,timeout,e.jpg,,,381048.8000000119,381048.5,380524.677,380671.09999999404,380541.711,380890.872,
トライアル,flow.Sequence,13_7,2023-01-05T04:33:31.506Z,,,b,,,180,3284.060999999987,completion,e.jpg,,,381049.2000000179,381048.5,377921.40000000596,377922.7000000179,377764.439,380890.872,
空白時間1 (0.5秒),canvas.Screen,13_8_0,2023-01-05T04:33:31.980Z,,,d,,,45,503.78900000004796,timeout,eR.jpg,,,381522.90000000596,381377.992,381048.5,381049.40000000596,380890.872,381394.661,
注視(1秒),canvas.Screen,13_8_1,2023-01-05T04:33:32.850Z,,,d,,,45,847.9679999999935,timeout,eR.jpg,,,382392.3000000119,382392.2000000179,381377.992,381523,381394.661,382242.629,
空白時間2 (0.5秒),canvas.Screen,13_8_2,2023-01-05T04:33:33.331Z,,,d,,,45,502.15399999998044,timeout,eR.jpg,,,382874,382728.087,382392.2000000179,382392.40000000596,382242.629,382744.783,
刺激提示,canvas.Screen,13_8_3,2023-01-05T04:33:35.481Z,,,d,true,d,45,2277.4170000178856,response,eR.jpg,d,keypress(j),385023.40000000596,385022.2000000179,382728.087,382874.09999999404,382744.783,384918.947,
フィードバック(0.5秒),canvas.Screen,13_8_4,2023-01-05T04:33:35.998Z,,,d,,,45,493.1720000000205,timeout,eR.jpg,,,385540.5,385395.45,384902.264,385051.8000000119,384918.947,385412.119,
トライアル,flow.Sequence,13_8,2023-01-05T04:33:35.998Z,,,d,,,45,4504.578000000038,completion,eR.jpg,,,385540.7000000179,385395.45,381048.5,381049.3000000119,380890.872,385412.119,
空白時間1 (0.5秒),canvas.Screen,13_9_0,2023-01-05T04:33:36.379Z,,,b,,,315,360.18699999997625,timeout,e.jpg,,,385921.59999999404,385921.2000000179,385395.45,385540.90000000596,385412.119,385772.306,
注視(1秒),canvas.Screen,13_9_1,2023-01-05T04:33:37.234Z,,,b,,,315,854.6440000000293,timeout,e.jpg,,,386776.8000000119,386776.40000000596,385921.2000000179,385921.90000000596,385772.306,386626.95,
空白時間2 (0.5秒),canvas.Screen,13_9_2,2023-01-05T04:33:37.719Z,,,b,,,315,505.61599999998,timeout,e.jpg,,,387261.8000000119,387115.897,386776.40000000596,386777.09999999404,386626.95,387132.566,
刺激提示,canvas.Screen,13_9_3,2023-01-05T04:33:38.368Z,,,b,true,b,315,776.8340000059688,response,e.jpg,b,keypress(f),387910.3000000119,387909.40000000596,387115.897,387261.8000000119,387132.566,387794.498,
フィードバック(0.5秒),canvas.Screen,13_9_4,2023-01-05T04:33:38.885Z,,,b,,,315,504.3969999999972,timeout,e.jpg,,,388427.8000000119,388282.22,387777.836,387927,387794.498,388298.895,
トライアル,flow.Sequence,13_9,2023-01-05T04:33:38.886Z,,,b,,,315,2870.100999999966,completion,e.jpg,,,388428.3000000119,388282.22,385395.45,385540.8000000119,385412.119,388298.895,
空白時間1 (0.5秒),canvas.Screen,13_10_0,2023-01-05T04:33:39.390Z,,,b,,,45,505.1809999999823,timeout,e.jpg,,,388932.40000000596,388787.407,388282.22,388428.59999999404,388298.895,388804.076,
注視(1秒),canvas.Screen,13_10_1,2023-01-05T04:33:40.258Z,,,b,,,45,842.494000000006,timeout,e.jpg,,,389800.90000000596,389800.59999999404,388787.407,388932.5,388804.076,389646.57,
空白時間2 (0.5秒),canvas.Screen,13_10_2,2023-01-05T04:33:40.610Z,,,b,,,45,363.41499999997905,timeout,e.jpg,,,390152.8000000119,390152.3000000119,389800.59999999404,389801.09999999404,389646.57,390009.985,
刺激提示,canvas.Screen,13_10_3,2023-01-05T04:33:41.292Z,,,b,true,b,45,823.7150000178954,response,e.jpg,b,keypress(f),390834.3000000119,390833.7000000179,390152.3000000119,390153.09999999404,390009.985,390697.775,
フィードバック(0.5秒),canvas.Screen,13_10_4,2023-01-05T04:33:41.659Z,,,b,,,45,347.29899999999907,timeout,e.jpg,,,391201.5,391201.2000000179,390681.107,390835.09999999404,390697.775,391045.074,
トライアル,flow.Sequence,13_10,2023-01-05T04:33:41.659Z,,,b,,,45,2902.3050000178628,completion,e.jpg,,,391202.09999999404,391201.2000000179,388282.22,388428.59999999404,388298.895,391045.074,
空白時間1 (0.5秒),canvas.Screen,13_11_0,2023-01-05T04:33:42.136Z,,,b,,,225,505.1599999999744,timeout,e.jpg,,,391678.90000000596,391533.545,391201.2000000179,391202.40000000596,391045.074,391550.234,
注視(1秒),canvas.Screen,13_11_1,2023-01-05T04:33:43.003Z,,,b,,,225,849.4720000000088,timeout,e.jpg,,,392545.90000000596,392545.40000000596,391533.545,391679.2000000179,391550.234,392399.706,
空白時間2 (0.5秒),canvas.Screen,13_11_2,2023-01-05T04:33:43.491Z,,,b,,,225,506.5,timeout,e.jpg,,,393034,392889.543,392545.40000000596,392546.2000000179,392399.706,392906.206,
刺激提示,canvas.Screen,13_11_3,2023-01-05T04:33:44.174Z,,,b,false,b,225,809.5940000119153,response,e.jpg,d,keypress(j),393716.3000000119,393715.8000000119,392889.543,393034.2000000179,392906.206,393588.849,
フィードバック(0.5秒),canvas.Screen,13_11_4,2023-01-05T04:33:44.547Z,,,b,,,225,346.0009999999893,timeout,e.jpg,,,394090.09999999404,394089.59999999404,393572.16,393723.40000000596,393588.849,393934.85,
トライアル,flow.Sequence,13_11,2023-01-05T04:33:44.548Z,,,b,,,225,3044.525999994017,completion,e.jpg,,,394090.40000000596,394089.59999999404,391201.2000000179,391202.3000000119,391045.074,393934.85,
空白時間1 (0.5秒),canvas.Screen,13_12_0,2023-01-05T04:33:45.014Z,,,b,,,135,494.0250000000233,timeout,e.jpg,,,394557.2000000179,394411.865,394089.59999999404,394090.7000000179,393934.85,394428.875,
注視(1秒),canvas.Screen,13_12_1,2023-01-05T04:33:45.883Z,,,b,,,135,844.4579999999842,timeout,e.jpg,,,395425.59999999404,395425.40000000596,394411.865,394557.5,394428.875,395273.333,
空白時間2 (0.5秒),canvas.Screen,13_12_2,2023-01-05T04:33:46.243Z,,,b,,,135,365.2930000000051,timeout,e.jpg,,,395785.3000000119,395785.2000000179,395425.40000000596,395425.90000000596,395273.333,395638.626,
刺激提示,canvas.Screen,13_12_3,2023-01-05T04:33:47.343Z,,,b,true,b,135,1245.6740000119316,response,e.jpg,b,keypress(f),396885.40000000596,396884.3000000119,395785.2000000179,395785.40000000596,395638.626,396753.4,
フィードバック(0.5秒),canvas.Screen,13_12_4,2023-01-05T04:33:47.831Z,,,b,,,135,492.6900000000023,timeout,e.jpg,,,397374,397229.438,396736.738,396887,396753.4,397246.09,
トライアル,flow.Sequence,13_12,2023-01-05T04:33:47.831Z,,,b,,,135,3294.588000000047,completion,e.jpg,,,397374.09999999404,397229.438,394089.59999999404,394090.59999999404,393934.85,397246.09,
空白時間1 (0.5秒),canvas.Screen,13_13_0,2023-01-05T04:33:48.338Z,,,d,,,315,505.33499999996275,timeout,eR.jpg,,,397881.2000000179,397734.771,397229.438,397374.3000000119,397246.09,397751.425,
注視(1秒),canvas.Screen,13_13_1,2023-01-05T04:33:49.210Z,,,d,,,315,855.7399999999907,timeout,eR.jpg,,,398753,398752.40000000596,397734.771,397881.5,397751.425,398607.165,
空白時間2 (0.5秒),canvas.Screen,13_13_2,2023-01-05T04:33:49.685Z,,,d,,,315,492.99499999999534,timeout,eR.jpg,,,399228,399083.458,398752.40000000596,398753.40000000596,398607.165,399100.16,
刺激提示,canvas.Screen,13_13_3,2023-01-05T04:33:50.499Z,,,d,true,d,315,940.7400000059861,response,eR.jpg,d,keypress(j),400042,400040.90000000596,399083.458,399228.09999999404,399100.16,399927.942,
フィードバック(0.5秒),canvas.Screen,13_13_4,2023-01-05T04:33:51.013Z,,,d,,,315,499.10700000001816,timeout,eR.jpg,,,400555.5,400410.491,399911.082,400065.59999999404,399927.942,400427.049,
トライアル,flow.Sequence,13_13,2023-01-05T04:33:51.013Z,,,d,,,315,3164.4009999999544,completion,eR.jpg,,,400556.09999999404,400410.491,397229.438,397374.3000000119,397246.09,400427.049,
空白時間1 (0.5秒),canvas.Screen,13_14_0,2023-01-05T04:33:51.394Z,,,d,,,0,360.64400000002934,timeout,eR.jpg,,,400936.90000000596,400936.59999999404,400410.491,400556.40000000596,400427.049,400787.693,
注視(1秒),canvas.Screen,13_14_1,2023-01-05T04:33:52.242Z,,,d,,,0,837.9959999999846,timeout,eR.jpg,,,401784.90000000596,401784.59999999404,400936.59999999404,400937.3000000119,400787.693,401625.689,
空白時間2 (0.5秒),canvas.Screen,13_14_2,2023-01-05T04:33:52.712Z,,,d,,,0,500.58299999998417,timeout,eR.jpg,,,402254.5,402109.589,401784.59999999404,401785.09999999404,401625.689,402126.272,
刺激提示,canvas.Screen,13_14_3,2023-01-05T04:33:53.415Z,,,d,true,d,0,830.6280000059633,response,eR.jpg,d,keypress(j),402957.3000000119,402956.90000000596,402109.589,402254.8000000119,402126.272,402819.781,
フィードバック(0.5秒),canvas.Screen,13_14_4,2023-01-05T04:33:53.787Z,,,d,,,0,366.2969999999623,timeout,eR.jpg,,,403329.8000000119,403329.5,402803.079,402957.7000000179,402819.781,403186.078,
トライアル,flow.Sequence,13_14,2023-01-05T04:33:53.787Z,,,d,,,0,2902.451000000001,completion,eR.jpg,,,403330,403329.5,400410.491,400556.3000000119,400427.049,403186.078,
空白時間1 (0.5秒),canvas.Screen,13_15_0,2023-01-05T04:33:54.148Z,,,d,,,270,361.5890000000363,timeout,eR.jpg,,,403690.40000000596,403690.09999999404,403329.5,403330.2000000179,403186.078,403547.667,
注視(1秒),canvas.Screen,13_15_1,2023-01-05T04:33:55.010Z,,,d,,,270,848.7660000000033,timeout,eR.jpg,,,404552.8000000119,404552.7000000179,403690.09999999404,403690.59999999404,403547.667,404396.433,
空白時間2 (0.5秒),canvas.Screen,13_15_2,2023-01-05T04:33:55.482Z,,,d,,,270,500.66399999998976,timeout,eR.jpg,,,405024.8000000119,404880.426,404552.7000000179,404552.8000000119,404396.433,404897.097,
刺激提示,canvas.Screen,13_15_3,2023-01-05T04:33:56.355Z,,,d,true,d,270,999.1030000178725,response,eR.jpg,d,keypress(j),405897.40000000596,405896.2000000179,404880.426,405024.90000000596,404897.097,405793.854,
フィードバック(0.5秒),canvas.Screen,13_15_4,2023-01-05T04:33:56.883Z,,,d,,,270,503.35999999998603,timeout,eR.jpg,,,406426,406280.544,405777.175,405923.09999999404,405793.854,406297.214,
トライアル,flow.Sequence,13_15,2023-01-05T04:33:56.884Z,,,d,,,270,3094.466000000015,completion,eR.jpg,,,406426.40000000596,406280.544,403329.5,403330.09999999404,403186.078,406297.214,
タスクのセット,flow.Loop,13,2023-01-05T04:33:56.884Z,,,,,,,53059.74099999998,completion,,,,406426.8000000119,406280.544,353376.90000000596,353378.59999999404,353220.803,406297.214,
休憩,canvas.Screen,14,2023-01-05T04:34:56.877Z,,,,,,,59995.924,timeout,,,,466419.59999999404,466275.509,406280.544,406427,406297.214,466293.138,
休憩終了,html.Page,15,2023-01-05T04:35:10.008Z,,,,,,,13257.362000000023,form submission,,,,479550.59999999404,479550.5,466275.509,466419.59999999404,466293.138,479406.712,
イントロ2,html.Page,16,2023-01-05T04:35:13.382Z,,,,,,,3517.2880000000005,form submission,,,,482924.40000000596,482924,479389.979,479550.7000000179,479406.712,482782.949,
イントロ3,html.Page,17,2023-01-05T04:35:25.312Z,,,,,,,12071.050999999978,form submission,,,,494854.40000000596,494854,482766.375,482924.40000000596,482782.949,494716.655,
イントロ4,html.Page,18,2023-01-05T04:35:36.631Z,,,,,,,11456.844999999972,form submission,,,,506173.7000000179,506173.5,494699.965,494854.5,494716.655,506030.98,
イントロ5,html.Page,19,2023-01-05T04:35:44.831Z,,,,,,,8341.619999994058,form submission,,,,514372.90000000596,514372.59999999404,506014.332,506173.7000000179,506030.98,514230.317,
できるだけ早く正確に,canvas.Screen,20,2023-01-05T04:35:45.691Z,,,,,,,850.1790000000037,timeout,,,,515233.2000000179,515233,514213.563,514372.90000000596,514230.317,515080.496,
空白時間1 (0.5秒),canvas.Screen,21_0_0,2023-01-05T04:35:46.173Z,,,d,,,225,505.6000000000349,timeout,2R.jpg,,,515715.2000000179,515569.332,515233,515233.40000000596,515080.496,515586.096,
注視(1秒),canvas.Screen,21_0_1,2023-01-05T04:35:47.051Z,,,d,,,225,850.1439999999711,timeout,2R.jpg,,,516593.40000000596,516593,515569.332,515715.5,515586.096,516436.24,
空白時間2 (0.5秒),canvas.Screen,21_0_2,2023-01-05T04:35:47.514Z,,,d,,,225,492.15600000001723,timeout,2R.jpg,,,517056.3000000119,516911.658,516593,516593.59999999404,516436.24,516928.396,
刺激提示(練習),canvas.Screen,21_0_3,2023-01-05T04:35:48.539Z,,,d,true,d,225,1152.3040000178735,response,2R.jpg,d,keypress(j),518081.5,518080.7000000179,516911.658,517056.3000000119,516928.396,517951.349,
フィードバック(0.5秒),canvas.Screen,21_0_4,2023-01-05T04:35:49.042Z,,,d,,,225,504.3410000000149,timeout,2R.jpg,,,518584.59999999404,518439.044,517934.682,518093.59999999404,517951.349,518455.69,
