sender,sender_type,sender_id,timestamp,meta,,answer,correct,correctResponse,deg,duration,ended_on,image,response,response_action,time_commit,time_end,time_render,time_run,time_show,time_switch,url
イントロ1,html.Page,0,2023-01-16T05:41:08.732Z,"{""labjs_version"":""20.2.4"",""labjs_build"":{""flavor"":""development"",""commit"":""f5b4a49f956347addd546a832a3327688c2c0fef""},""location"":""https://labjs.felixhenninger.com/api/labjs_preview/index.html"",""userAgent"":""Mozilla/5.0 (Windows NT 10.0; Win64; x64) AppleWebKit/537.36 (KHTML, like Gecko) Chrome/108.0.0.0 Safari/537.36"",""platform"":""Win32"",""language"":""ja-JP"",""locale"":""ja"",""timeZone"":""Etc/GMT-9"",""timezoneOffset"":-540,""screen_width"":1280,""screen_height"":720,""scroll_width"":883,""scroll_height"":760,""window_innerWidth"":883,""window_innerHeight"":808,""devicePixelRatio"":1.125}",,,,,,14469.429000035763,form submission,,,,15094.900000035763,15094.400000035763,458.26,631.1000000238419,624.971,15106.403,{}
イントロ2,html.Page,1,2023-01-16T05:41:09.260Z,,,,,,,516.7970000476835,form submission,,,,15623.5,15623.200000047684,15089.827,15095.300000011921,15106.403,15640.684,
イントロ3,html.Page,2,2023-01-16T05:41:09.920Z,,,,,,,642.8160000000007,form submission,,,,16283.900000035763,16283.5,15606.39,15624,15640.684,16289.612,
イントロ4,html.Page,3,2023-01-16T05:41:10.236Z,,,,,,,309.68800001192176,form submission,,,,16599.400000035763,16599.30000001192,16272.936,16284.100000023842,16289.612,16606.198,
イントロ5,html.Page,4,2023-01-16T05:41:10.708Z,,,,,,,465.20200003576247,form submission,,,,17071.700000047684,17071.400000035763,16589.463,16599.600000023842,16606.198,17072.844,
できるだけ早く正確に,canvas.Screen,5,2023-01-16T05:41:11.693Z,,,,,,,999.8499999999985,timeout,,,,18056.900000035763,18056.381,17056.298,17071.80000001192,17072.844,18072.694,
空白時間1 (0.5秒),canvas.Screen,6_0_0,2023-01-16T05:41:12.193Z,,,d,,,135,499.875,timeout,eR.jpg,,,18556.700000047684,18556.002,18056.381,18057.200000047684,18072.694,18572.569,
注視(1秒),canvas.Screen,6_0_1,2023-01-16T05:41:13.193Z,,,d,,,135,999.9220000000023,timeout,eR.jpg,,,19556.80000001192,19556.012,18556.002,18556.900000035763,18572.569,19572.491,
空白時間2 (0.5秒),canvas.Screen,6_0_2,2023-01-16T05:41:13.693Z,,,d,,,135,499.91399999999703,timeout,eR.jpg,,,20056.400000035763,20055.831,19556.012,19556.900000035763,19572.491,20072.405,
刺激提示(練習),canvas.Screen,6_0_3,2023-01-16T05:41:14.249Z,,,d,true,d,135,539.2950000476849,response,eR.jpg,d,keypress(j),20612.80000001192,20611.700000047684,20055.831,20056.5,20072.405,20622.409,
フィードバック(0.5秒),canvas.Screen,6_0_4,2023-01-16T05:41:14.743Z,,,d,,,135,499.8159999999989,timeout,eR.jpg,,,21106.200000047684,21105.629,20605.406,20613.900000035763,20622.409,21122.225,
トライアル,flow.Sequence,6_0,2023-01-16T05:41:14.744Z,,,d,,,135,3032.9350000000013,completion,eR.jpg,,,21107.200000047684,21105.629,18056.381,18057.100000023842,18072.694,21122.225,
空白時間1 (0.5秒),canvas.Screen,6_1_0,2023-01-16T05:41:15.243Z,,,b,,,180,499.9830000000002,timeout,e.jpg,,,21605.900000035763,21605.556,21105.629,21107.5,21122.225,21622.208,
注視(1秒),canvas.Screen,6_1_1,2023-01-16T05:41:16.243Z,,,b,,,180,999.8240000000005,timeout,e.jpg,,,22606.30000001192,22605.663,21605.556,21606,21622.208,22622.032,
空白時間2 (0.5秒),canvas.Screen,6_1_2,2023-01-16T05:41:16.743Z,,,b,,,180,499.91200000000026,timeout,e.jpg,,,23106,23105.394,22605.663,22606.5,22622.032,23121.944,
刺激提示(練習),canvas.Screen,6_1_3,2023-01-16T05:41:17.298Z,,,b,true,b,180,538.5560000000005,response,e.jpg,b,keypress(f),23661.400000035763,23660.5,23105.394,23106.100000023842,23121.944,23688.73,
フィードバック(0.5秒),canvas.Screen,6_1_4,2023-01-16T05:41:17.809Z,,,b,,,180,499.92399999999907,timeout,e.jpg,,,24172.600000023842,24171.928,23671.898,23677.700000047684,23688.73,24188.654,
トライアル,flow.Sequence,6_1,2023-01-16T05:41:17.809Z,,,b,,,180,3049.7030000000013,completion,e.jpg,,,24172.900000035763,24171.928,21105.629,21107.5,21122.225,24188.654,
空白時間1 (0.5秒),canvas.Screen,6_2_0,2023-01-16T05:41:18.309Z,,,b,,,270,499.75800000000163,timeout,e.jpg,,,24672.5,24671.865,24171.928,24173.100000023842,24188.654,24688.412,
注視(1秒),canvas.Screen,6_2_1,2023-01-16T05:41:19.309Z,,,b,,,270,999.8689999999988,timeout,e.jpg,,,25672.30000001192,25671.598,24671.865,24672.5,24688.412,25688.281,
空白時間2 (0.5秒),canvas.Screen,6_2_2,2023-01-16T05:41:19.809Z,,,b,,,270,499.96099999999933,timeout,e.jpg,,,26172.200000047684,26171.597,25671.598,25672.5,25688.281,26188.242,
刺激提示(練習),canvas.Screen,6_2_3,2023-01-16T05:41:20.187Z,,,b,true,b,270,361.25800000000163,response,e.jpg,b,keypress(f),26550.100000023842,26549.5,26171.597,26172.30000001192,26188.242,26554.857,
フィードバック(0.5秒),canvas.Screen,6_2_4,2023-01-16T05:41:20.675Z,,,b,,,270,499.994999999999,timeout,e.jpg,,,27038.5,27038.172,26538.291,26551.100000023842,26554.857,27054.852,
トライアル,flow.Sequence,6_2,2023-01-16T05:41:20.675Z,,,b,,,270,2849.518,completion,e.jpg,,,27038.600000023842,27038.172,24171.928,24173,24188.654,27054.852,
空白時間1 (0.5秒),canvas.Screen,6_3_0,2023-01-16T05:41:21.175Z,,,d,,,315,500.02800000000207,timeout,eR.jpg,,,27538.700000047684,27538.15,27038.172,27038.700000047684,27054.852,27554.88,
注視(1秒),canvas.Screen,6_3_1,2023-01-16T05:41:22.175Z,,,d,,,315,999.6919999999991,timeout,eR.jpg,,,28538.80000001192,28538.099,27538.15,27538.900000035763,27554.88,28554.572,
空白時間2 (0.5秒),canvas.Screen,6_3_2,2023-01-16T05:41:22.676Z,,,d,,,315,500.02300000000105,timeout,eR.jpg,,,29039.80000001192,29037.884,28538.099,28539,28554.572,29054.595,
刺激提示(練習),canvas.Screen,6_3_3,2023-01-16T05:41:22.981Z,,,d,true,d,315,289.60500004768255,response,eR.jpg,d,keypress(j),29345,29344.200000047684,29037.884,29040,29054.595,29354.458,
フィードバック(0.5秒),canvas.Screen,6_3_4,2023-01-16T05:41:23.475Z,,,d,,,315,499.94200000000274,timeout,eR.jpg,,,29838.400000035763,29837.725,29337.93,29346.100000023842,29354.458,29854.4,
トライアル,flow.Sequence,6_3,2023-01-16T05:41:23.475Z,,,d,,,315,2782.8729999999996,completion,eR.jpg,,,29838.600000023842,29837.725,27038.172,27038.700000047684,27054.852,29854.4,
練習試行(e),flow.Loop,6,2023-01-16T05:41:23.475Z,,,,,,,11765.030999999999,completion,,,,29838.700000047684,29837.725,18056.381,18057.100000023842,18072.694,29854.4,
イントロ6,html.Page,7,2023-01-16T05:41:24.724Z,,,,,,,1233.0999999999985,form submission,,,,31087.900000035763,31087.5,29837.725,29838.900000035763,29854.4,31114.324,
できるだけ早く正確に,canvas.Screen,8,2023-01-16T05:41:25.741Z,,,,,,,1006.5279999999984,timeout,,,,32104.80000001192,32104.26,31070.953,31088.200000047684,31114.324,32120.852,
空白時間1 (0.5秒),canvas.Screen,9_0_0,2023-01-16T05:41:26.244Z,,,b,,,270,499.89700000000084,timeout,e.jpg,,,32607.200000047684,32604.13,32104.26,32105,32120.852,32620.749,
注視(1秒),canvas.Screen,9_0_1,2023-01-16T05:41:27.241Z,,,b,,,270,999.8739999999998,timeout,e.jpg,,,33604.5,33603.914,32604.13,32607.400000035763,32620.749,33620.623,
空白時間2 (0.5秒),canvas.Screen,9_0_2,2023-01-16T05:41:27.741Z,,,b,,,270,500.012999999999,timeout,e.jpg,,,34104.30000001192,34103.89,33603.914,33604.700000047684,33620.623,34120.636,
刺激提示,canvas.Screen,9_0_3,2023-01-16T05:41:28.136Z,,,b,true,b,270,377.96400002384325,response,e.jpg,b,keypress(f),34499.5,34498.60000002384,34103.89,34104.40000003576,34120.636,34503.771,
フィードバック(0.5秒),canvas.Screen,9_0_4,2023-01-16T05:41:28.625Z,,,b,,,270,500.08699999999953,timeout,e.jpg,,,34988,34987.28,34487.328,34510.5,34503.771,35003.858,
トライアル,flow.Sequence,9_0,2023-01-16T05:41:28.625Z,,,b,,,270,2866.428,completion,e.jpg,,,34988.200000047684,34987.28,32104.26,32105,32120.852,35003.858,
空白時間1 (0.5秒),canvas.Screen,9_1_0,2023-01-16T05:41:29.124Z,,,b,,,225,499.8580000000002,timeout,e.jpg,,,35487.700000047684,35487.128,34987.28,34988.30000001192,35003.858,35503.716,
注視(1秒),canvas.Screen,9_1_1,2023-01-16T05:41:30.124Z,,,b,,,225,999.8249999999971,timeout,e.jpg,,,36487.30000001192,36486.998,35487.128,35487.80000001192,35503.716,36503.541,
空白時間2 (0.5秒),canvas.Screen,9_1_2,2023-01-16T05:41:30.624Z,,,b,,,225,500.00700000000506,timeout,e.jpg,,,36987.5,36986.905,36486.998,36487.40000003576,36503.541,37003.548,
刺激提示,canvas.Screen,9_1_3,2023-01-16T05:41:30.962Z,,,b,false,b,225,320.8520000357603,response,e.jpg,d,keypress(j),37325.200000047684,37324.40000003576,36986.905,36987.60000002384,37003.548,37336.884,
フィードバック(0.5秒),canvas.Screen,9_1_4,2023-01-16T05:41:31.458Z,,,b,,,225,499.7910000000047,timeout,e.jpg,,,37821.90000003576,37820.077,37320.294,37326.40000003576,37336.884,37836.675,
トライアル,flow.Sequence,9_1,2023-01-16T05:41:31.459Z,,,b,,,225,2816.2189999999973,completion,e.jpg,,,37822.30000001192,37820.077,34987.28,34988.30000001192,35003.858,37836.675,
空白時間1 (0.5秒),canvas.Screen,9_2_0,2023-01-16T05:41:31.958Z,,,b,,,90,499.92899999999645,timeout,e.jpg,,,38321.40000003576,38320.021,37820.077,37822.5,37836.675,38336.604,
注視(1秒),canvas.Screen,9_2_1,2023-01-16T05:41:32.957Z,,,b,,,90,999.9660000000003,timeout,e.jpg,,,39320.30000001192,39319.813,38320.021,38321.700000047684,38336.604,39336.57,
空白時間2 (0.5秒),canvas.Screen,9_2_2,2023-01-16T05:41:33.458Z,,,b,,,90,499.83000000000175,timeout,e.jpg,,,39821.10000002384,39819.893,39319.813,39320.5,39336.57,39836.4,
刺激提示,canvas.Screen,9_2_3,2023-01-16T05:41:33.995Z,,,b,true,b,90,521.0999999999985,response,e.jpg,b,keypress(f),40358.10000002384,40357.5,39819.893,39821.40000003576,39836.4,40369.644,
フィードバック(0.5秒),canvas.Screen,9_2_4,2023-01-16T05:41:34.490Z,,,b,,,90,500.0880000000034,timeout,e.jpg,,,40853.60000002384,40852.964,40353.077,40367.80000001192,40369.644,40869.732,
トライアル,flow.Sequence,9_2,2023-01-16T05:41:34.490Z,,,b,,,90,3016.288999999997,completion,e.jpg,,,40853.700000047684,40852.964,37820.077,37822.5,37836.675,40869.732,
空白時間1 (0.5秒),canvas.Screen,9_3_0,2023-01-16T05:41:34.990Z,,,b,,,0,499.89399999999296,timeout,e.jpg,,,41353.5,41352.91,40852.964,40853.80000001192,40869.732,41369.626,
注視(1秒),canvas.Screen,9_3_1,2023-01-16T05:41:35.991Z,,,b,,,0,999.7760000000053,timeout,e.jpg,,,42354.40000003576,42352.789,41352.91,41353.700000047684,41369.626,42369.402,
空白時間2 (0.5秒),canvas.Screen,9_3_2,2023-01-16T05:41:36.492Z,,,b,,,0,500.05399999999645,timeout,e.jpg,,,42855.700000047684,42852.754,42352.789,42354.60000002384,42369.402,42869.456,
刺激提示,canvas.Screen,9_3_3,2023-01-16T05:41:36.905Z,,,b,true,b,0,398.5440000000017,response,e.jpg,b,keypress(f),43268.5,43268,42852.754,42856,42869.456,43285.946,
フィードバック(0.5秒),canvas.Screen,9_3_4,2023-01-16T05:41:37.407Z,,,b,,,0,499.94699999999284,timeout,e.jpg,,,43770.200000047684,43769.354,43269.454,43270,43285.946,43785.893,
トライアル,flow.Sequence,9_3,2023-01-16T05:41:37.407Z,,,b,,,0,2899.6219999999958,completion,e.jpg,,,43770.40000003576,43769.354,40852.964,40853.700000047684,40869.732,43785.893,
空白時間1 (0.5秒),canvas.Screen,9_4_0,2023-01-16T05:41:37.907Z,,,d,,,135,499.9080000000031,timeout,eR.jpg,,,44270.10000002384,44269.523,43769.354,43770.5,43785.893,44285.801,
注視(1秒),canvas.Screen,9_4_1,2023-01-16T05:41:38.906Z,,,d,,,135,999.9369999999981,timeout,eR.jpg,,,45269.80000001192,45269.111,44269.523,44270.30000001192,44285.801,45285.738,
空白時間2 (0.5秒),canvas.Screen,9_4_2,2023-01-16T05:41:39.406Z,,,d,,,135,499.9429999999993,timeout,eR.jpg,,,45769.90000003576,45769.104,45269.111,45270,45285.738,45785.681,
刺激提示,canvas.Screen,9_4_3,2023-01-16T05:41:39.986Z,,,d,true,d,135,562.5190000476869,response,eR.jpg,d,keypress(j),46349.200000047684,46348.200000047684,45769.104,45770.10000002384,45785.681,46390.167,
フィードバック(0.5秒),canvas.Screen,9_4_4,2023-01-16T05:41:40.506Z,,,d,,,135,495.42399999999907,timeout,eR.jpg,,,46869.80000001192,46868.938,46352.276,46368.10000002384,46390.167,46885.591,
トライアル,flow.Sequence,9_4,2023-01-16T05:41:40.507Z,,,d,,,135,3083.0450000000055,completion,eR.jpg,,,46870.30000001192,46868.938,43769.354,43770.5,43785.893,46885.591,
空白時間1 (0.5秒),canvas.Screen,9_5_0,2023-01-16T05:41:41.006Z,,,b,,,180,499.84500000000116,timeout,e.jpg,,,47369.90000003576,47368.946,46868.938,46870.5,46885.591,47385.436,
注視(1秒),canvas.Screen,9_5_1,2023-01-16T05:41:42.006Z,,,b,,,180,999.9589999999953,timeout,e.jpg,,,48369.60000002384,48368.749,47368.946,47370.200000047684,47385.436,48385.395,
空白時間2 (0.5秒),canvas.Screen,9_5_2,2023-01-16T05:41:42.506Z,,,b,,,180,499.8600000000006,timeout,e.jpg,,,48869.40000003576,48868.622,48368.749,48369.80000001192,48385.395,48885.255,
刺激提示,canvas.Screen,9_5_3,2023-01-16T05:41:43.130Z,,,b,true,b,180,607.0450000119235,response,e.jpg,b,keypress(f),49493.40000003576,49492.30000001192,48868.622,48869.5,48885.255,49501.797,
フィードバック(0.5秒),canvas.Screen,9_5_4,2023-01-16T05:41:43.623Z,,,b,,,180,499.9230000000025,timeout,e.jpg,,,49986,49985.157,49485.183,49496.30000001192,49501.797,50001.72,
トライアル,flow.Sequence,9_5,2023-01-16T05:41:43.623Z,,,b,,,180,3099.565999999999,completion,e.jpg,,,49986.200000047684,49985.157,46868.938,46870.40000003576,46885.591,50001.72,
空白時間1 (0.5秒),canvas.Screen,9_6_0,2023-01-16T05:41:44.122Z,,,b,,,135,500.0169999999998,timeout,e.jpg,,,50485.80000001192,50485.128,49985.157,49986.40000003576,50001.72,50501.737,
注視(1秒),canvas.Screen,9_6_1,2023-01-16T05:41:45.122Z,,,b,,,135,999.8199999999997,timeout,e.jpg,,,51486.30000001192,51484.977,50485.128,50485.90000003576,50501.737,51501.557,
空白時間2 (0.5秒),canvas.Screen,9_6_2,2023-01-16T05:41:45.623Z,,,b,,,135,500.10699999999633,timeout,e.jpg,,,51986.60000002384,51984.841,51484.977,51486.40000003576,51501.557,52001.664,
刺激提示,canvas.Screen,9_6_3,2023-01-16T05:41:46.074Z,,,b,true,b,135,435.9360000238448,response,e.jpg,b,keypress(f),52438.5,52437.60000002384,51984.841,51987,52001.664,52451.411,
フィードバック(0.5秒),canvas.Screen,9_6_4,2023-01-16T05:41:46.571Z,,,b,,,135,500.0069999999978,timeout,e.jpg,,,52935.30000001192,52934.765,52434.834,52449.30000001192,52451.411,52951.418,
トライアル,flow.Sequence,9_6,2023-01-16T05:41:46.571Z,,,b,,,135,2933.0449999999983,completion,e.jpg,,,52935.5,52934.765,49985.157,49986.30000001192,50001.72,52951.418,
空白時間1 (0.5秒),canvas.Screen,9_7_0,2023-01-16T05:41:47.071Z,,,b,,,315,499.85399999999936,timeout,e.jpg,,,53435.30000001192,53434.747,52934.765,52935.60000002384,52951.418,53451.272,
注視(1秒),canvas.Screen,9_7_1,2023-01-16T05:41:48.072Z,,,b,,,315,999.8650000000052,timeout,e.jpg,,,54435.90000003576,54434.617,53434.747,53435.40000003576,53451.272,54451.137,
空白時間2 (0.5秒),canvas.Screen,9_7_2,2023-01-16T05:41:48.571Z,,,b,,,315,500.1979999999967,timeout,e.jpg,,,54935.200000047684,54934.569,54434.617,54436,54451.137,54951.335,
刺激提示,canvas.Screen,9_7_3,2023-01-16T05:41:49.048Z,,,b,true,b,315,459.1650000000009,response,e.jpg,b,keypress(f),55412.10000002384,55410.5,54934.569,54935.40000003576,54951.335,55417.684,
フィードバック(0.5秒),canvas.Screen,9_7_4,2023-01-16T05:41:49.538Z,,,b,,,315,499.974000000002,timeout,e.jpg,,,55901.90000003576,55901.291,55401.014,55413.40000003576,55417.684,55917.658,
トライアル,flow.Sequence,9_7,2023-01-16T05:41:49.538Z,,,b,,,315,2949.8729999999996,completion,e.jpg,,,55902.10000002384,55901.291,52934.765,52935.60000002384,52951.418,55917.658,
空白時間1 (0.5秒),canvas.Screen,9_8_0,2023-01-16T05:41:50.038Z,,,d,,,90,499.9019999999946,timeout,eR.jpg,,,56402,56401.445,55901.291,55902.200000047684,55917.658,56417.56,
注視(1秒),canvas.Screen,9_8_1,2023-01-16T05:41:51.037Z,,,d,,,90,999.9409999999989,timeout,eR.jpg,,,57401.5,57400.837,56401.445,56402.10000002384,56417.56,57417.501,
空白時間2 (0.5秒),canvas.Screen,9_8_2,2023-01-16T05:41:51.538Z,,,d,,,90,500.2740000000049,timeout,eR.jpg,,,57901.700000047684,57900.819,57400.837,57401.60000002384,57417.501,57917.775,
刺激提示,canvas.Screen,9_8_3,2023-01-16T05:41:51.919Z,,,d,true,d,90,364.62500003576133,response,eR.jpg,d,keypress(j),58283.200000047684,58282.40000003576,57900.819,57901.90000003576,57917.775,58300.623,
フィードバック(0.5秒),canvas.Screen,9_8_4,2023-01-16T05:41:52.422Z,,,d,,,90,499.9250000000029,timeout,eR.jpg,,,58786,58783.972,58284.042,58292.40000003576,58300.623,58800.548,
トライアル,flow.Sequence,9_8,2023-01-16T05:41:52.422Z,,,d,,,90,2866.3139999999985,completion,eR.jpg,,,58786.30000001192,58783.972,55901.291,55902.10000002384,55917.658,58800.548,
空白時間1 (0.5秒),canvas.Screen,9_9_0,2023-01-16T05:41:52.920Z,,,d,,,45,499.96800000000076,timeout,eR.jpg,,,59284.60000002384,59283.941,58783.972,58786.30000001192,58800.548,59300.516,
注視(1秒),canvas.Screen,9_9_1,2023-01-16T05:41:53.920Z,,,d,,,45,1000.0799999999945,timeout,eR.jpg,,,60284.60000002384,60283.905,59283.941,59284.700000047684,59300.516,60300.596,
空白時間2 (0.5秒),canvas.Screen,9_9_2,2023-01-16T05:41:54.420Z,,,d,,,45,499.6929999999993,timeout,eR.jpg,,,60784.30000001192,60783.659,60283.905,60284.80000001192,60300.596,60800.289,
刺激提示,canvas.Screen,9_9_3,2023-01-16T05:41:54.766Z,,,d,true,d,45,329.21100000000297,response,eR.jpg,d,keypress(j),61130.5,61129.5,60783.659,60784.5,60800.289,61150.297,
フィードバック(0.5秒),canvas.Screen,9_9_4,2023-01-16T05:41:55.270Z,,,d,,,45,500.03600000000006,timeout,eR.jpg,,,61634,61633.515,61133.52,61134.200000047684,61150.297,61650.333,
トライアル,flow.Sequence,9_9,2023-01-16T05:41:55.270Z,,,d,,,45,2832.966999999997,completion,eR.jpg,,,61634.200000047684,61633.515,58783.972,58786.30000001192,58800.548,61650.333,
空白時間1 (0.5秒),canvas.Screen,9_10_0,2023-01-16T05:41:55.771Z,,,d,,,180,499.8130000000019,timeout,eR.jpg,,,62135.10000002384,62133.505,61633.515,61634.30000001192,61650.333,62150.146,
注視(1秒),canvas.Screen,9_10_1,2023-01-16T05:41:56.770Z,,,d,,,180,999.9519999999975,timeout,eR.jpg,,,63134.10000002384,63133.488,62133.505,62135.200000047684,62150.146,63150.098,
空白時間2 (0.5秒),canvas.Screen,9_10_2,2023-01-16T05:41:57.271Z,,,d,,,180,499.98800000000483,timeout,eR.jpg,,,63634.80000001192,63633.35,63133.488,63134.200000047684,63150.098,63650.086,
刺激提示,canvas.Screen,9_10_3,2023-01-16T05:41:57.662Z,,,d,false,d,180,375.8140000357598,response,eR.jpg,b,keypress(f),64026.40000003576,64025.90000003576,63633.35,63634.90000003576,63650.086,64050.005,
フィードバック(0.5秒),canvas.Screen,9_10_4,2023-01-16T05:41:58.170Z,,,d,,,180,499.92399999999907,timeout,eR.jpg,,,64533.90000003576,64533.148,64033.322,64035.10000002384,64050.005,64549.929,
トライアル,flow.Sequence,9_10,2023-01-16T05:41:58.170Z,,,d,,,180,2882.8150000000023,completion,eR.jpg,,,64534.10000002384,64533.148,61633.515,61634.200000047684,61650.333,64549.929,
空白時間1 (0.5秒),canvas.Screen,9_11_0,2023-01-16T05:41:58.669Z,,,d,,,270,499.7930000000051,timeout,eR.jpg,,,65033.5,65033.082,64533.148,64534.30000001192,64549.929,65049.722,
注視(1秒),canvas.Screen,9_11_1,2023-01-16T05:41:59.671Z,,,d,,,270,999.9369999999981,timeout,eR.jpg,,,66035.40000003576,66032.978,65033.082,65033.700000047684,65049.722,66049.659,
空白時間2 (0.5秒),canvas.Screen,9_11_2,2023-01-16T05:42:00.169Z,,,d,,,270,500.04099999999744,timeout,eR.jpg,,,66533.30000001192,66532.935,66032.978,66035.60000002384,66049.659,66549.7,
刺激提示,canvas.Screen,9_11_3,2023-01-16T05:42:00.756Z,,,d,true,d,270,569.9000000238448,response,eR.jpg,d,keypress(j),67120.40000003576,67119.60000002384,66532.935,66533.40000003576,66549.7,67133.015,
フィードバック(0.5秒),canvas.Screen,9_11_4,2023-01-16T05:42:01.252Z,,,d,,,270,499.7960000000021,timeout,eR.jpg,,,67616.70000004768,67616.123,67116.054,67122.60000002384,67133.015,67632.811,
トライアル,flow.Sequence,9_11,2023-01-16T05:42:01.253Z,,,d,,,270,3066.1940000000104,completion,eR.jpg,,,67616.90000003576,67616.123,64533.148,64534.30000001192,64549.929,67632.811,
空白時間1 (0.5秒),canvas.Screen,9_12_0,2023-01-16T05:42:01.753Z,,,b,,,45,499.9649999999965,timeout,e.jpg,,,68116.90000003576,68116.252,67616.123,67617,67632.811,68132.776,
注視(1秒),canvas.Screen,9_12_1,2023-01-16T05:42:02.752Z,,,b,,,45,999.7880000000005,timeout,e.jpg,,,69116.5,69116.03,68116.252,68117,68132.776,69132.564,
空白時間2 (0.5秒),canvas.Screen,9_12_2,2023-01-16T05:42:03.252Z,,,b,,,45,500.3790000000008,timeout,e.jpg,,,69616.30000001192,69615.789,69116.03,69116.60000002384,69132.564,69632.943,
刺激提示,canvas.Screen,9_12_3,2023-01-16T05:42:03.648Z,,,b,true,b,45,378.7570000476844,response,e.jpg,b,keypress(f),70012.40000003576,70011.70000004768,69615.789,69616.40000003576,69632.943,70032.4,
フィードバック(0.5秒),canvas.Screen,9_12_4,2023-01-16T05:42:04.152Z,,,b,,,45,499.9959999999992,timeout,e.jpg,,,70516.20000004768,70515.765,70022.714,70023.20000004768,70032.4,70532.396,
トライアル,flow.Sequence,9_12,2023-01-16T05:42:04.152Z,,,b,,,45,2882.953999999998,completion,e.jpg,,,70516.30000001192,70515.765,67616.123,67616.90000003576,67632.811,70532.396,
空白時間1 (0.5秒),canvas.Screen,9_13_0,2023-01-16T05:42:04.653Z,,,d,,,315,499.916000000012,timeout,eR.jpg,,,71017,71015.746,70515.765,70516.5,70532.396,71032.312,
注視(1秒),canvas.Screen,9_13_1,2023-01-16T05:42:05.652Z,,,d,,,315,999.8209999999963,timeout,eR.jpg,,,72016.10000002384,72015.559,71015.746,71017.10000002384,71032.312,72032.133,
空白時間2 (0.5秒),canvas.Screen,9_13_2,2023-01-16T05:42:06.152Z,,,d,,,315,500.01200000000244,timeout,eR.jpg,,,72516,72515.438,72015.559,72016.20000004768,72032.133,72532.145,
刺激提示,canvas.Screen,9_13_3,2023-01-16T05:42:06.586Z,,,d,true,d,315,417.3549999999959,response,eR.jpg,d,keypress(j),72950.20000004768,72949.5,72515.438,72516.20000004768,72532.145,72965.524,
フィードバック(0.5秒),canvas.Screen,9_13_4,2023-01-16T05:42:07.085Z,,,d,,,315,499.79999999998836,timeout,eR.jpg,,,73449.30000001192,73448.666,72949.008,72951.90000003576,72965.524,73465.324,
トライアル,flow.Sequence,9_13,2023-01-16T05:42:07.085Z,,,d,,,315,2916.270000000004,completion,eR.jpg,,,73449.5,73448.666,70515.765,70516.40000003576,70532.396,73465.324,
空白時間1 (0.5秒),canvas.Screen,9_14_0,2023-01-16T05:42:07.585Z,,,d,,,0,500.21800000000803,timeout,eR.jpg,,,73949.30000001192,73948.685,73448.666,73449.60000002384,73465.324,73965.542,
注視(1秒),canvas.Screen,9_14_1,2023-01-16T05:42:08.585Z,,,d,,,0,999.6340000000055,timeout,eR.jpg,,,74949.10000002384,74948.499,73948.685,73949.40000003576,73965.542,74965.176,
空白時間2 (0.5秒),canvas.Screen,9_14_2,2023-01-16T05:42:09.085Z,,,d,,,0,499.92099999998754,timeout,eR.jpg,,,75448.90000003576,75448.439,74948.499,74949.20000004768,74965.176,75465.097,
刺激提示,canvas.Screen,9_14_3,2023-01-16T05:42:09.501Z,,,d,true,d,0,399.1030000476894,response,eR.jpg,d,keypress(j),75864.90000003576,75864.20000004768,75448.439,75449,75465.097,75881.672,
フィードバック(0.5秒),canvas.Screen,9_14_4,2023-01-16T05:42:10.002Z,,,d,,,0,499.9609999999957,timeout,eR.jpg,,,76366,76365.297,75865.222,75876.90000003576,75881.672,76381.633,
トライアル,flow.Sequence,9_14,2023-01-16T05:42:10.002Z,,,d,,,0,2899.9730000000127,completion,eR.jpg,,,76366.20000004768,76365.297,73448.666,73449.5,73465.324,76381.633,
空白時間1 (0.5秒),canvas.Screen,9_15_0,2023-01-16T05:42:10.502Z,,,d,,,225,500.09999999999127,timeout,eR.jpg,,,76865.70000004768,76864.943,76365.297,76366.40000003576,76381.633,76881.733,
注視(1秒),canvas.Screen,9_15_1,2023-01-16T05:42:11.501Z,,,d,,,225,999.6380000000063,timeout,eR.jpg,,,77865.60000002384,77864.803,76864.943,76866,76881.733,77881.371,
空白時間2 (0.5秒),canvas.Screen,9_15_2,2023-01-16T05:42:12.003Z,,,d,,,225,499.974000000002,timeout,eR.jpg,,,78367.20000004768,78364.778,77864.803,77865.70000004768,77881.371,78381.345,
刺激提示,canvas.Screen,9_15_3,2023-01-16T05:42:12.534Z,,,d,true,d,225,516.4550000119198,response,eR.jpg,d,keypress(j),78898.5,78897.80000001192,78364.778,78367.40000003576,78381.345,78914.728,
フィードバック(0.5秒),canvas.Screen,9_15_4,2023-01-16T05:42:13.034Z,,,d,,,225,499.88700000000244,timeout,eR.jpg,,,79398.40000003576,79397.861,78897.993,78900,78914.728,79414.615,
トライアル,flow.Sequence,9_15,2023-01-16T05:42:13.034Z,,,d,,,225,3016.228000000003,completion,eR.jpg,,,79398.70000004768,79397.861,76365.297,76366.40000003576,76381.633,79414.615,
タスクのセット,flow.Loop,9,2023-01-16T05:42:13.035Z,,,,,,,47277.009000000005,completion,,,,79398.80000001192,79397.861,32104.26,32105,32120.852,79414.615,
空白時間1 (0.5秒),canvas.Screen,10_0_0,2023-01-16T05:42:13.534Z,,,d,,,180,499.89199999999255,timeout,eR.jpg,,,79898.60000002384,79897.98,79397.861,79398.90000003576,79414.615,79914.507,
注視(1秒),canvas.Screen,10_0_1,2023-01-16T05:42:14.534Z,,,d,,,180,999.7820000000065,timeout,eR.jpg,,,80898.10000002384,80897.676,79897.98,79898.70000004768,79914.507,80914.289,
空白時間2 (0.5秒),canvas.Screen,10_0_2,2023-01-16T05:42:15.034Z,,,d,,,180,500.08400000000256,timeout,eR.jpg,,,81398.20000004768,81397.71,80897.676,80898.30000001192,80914.289,81414.373,
刺激提示,canvas.Screen,10_0_3,2023-01-16T05:42:15.635Z,,,d,true,d,180,584.0270000357559,response,eR.jpg,d,keypress(j),81999.20000004768,81998.40000003576,81397.71,81398.5,81414.373,82014.188,
フィードバック(0.5秒),canvas.Screen,10_0_4,2023-01-16T05:42:16.134Z,,,d,,,180,499.93000000000757,timeout,eR.jpg,,,82498.10000002384,82497.481,81997.651,82008.20000004768,82014.188,82514.118,
トライアル,flow.Sequence,10_0,2023-01-16T05:42:16.134Z,,,d,,,180,3082.8659999999945,completion,eR.jpg,,,82498.30000001192,82497.481,79397.861,79398.90000003576,79414.615,82514.118,
空白時間1 (0.5秒),canvas.Screen,10_1_0,2023-01-16T05:42:16.636Z,,,d,,,0,499.9630000000034,timeout,eR.jpg,,,82999.80000001192,82997.458,82497.481,82498.40000003576,82514.118,83014.081,
注視(1秒),canvas.Screen,10_1_1,2023-01-16T05:42:17.634Z,,,d,,,0,999.9219999999914,timeout,eR.jpg,,,83998.40000003576,83997.551,82997.458,82999.90000003576,83014.081,84014.003,
空白時間2 (0.5秒),canvas.Screen,10_1_2,2023-01-16T05:42:18.135Z,,,d,,,0,499.88400000000547,timeout,eR.jpg,,,84499.60000002384,84497.224,83997.551,83998.5,84014.003,84513.887,
刺激提示,canvas.Screen,10_1_3,2023-01-16T05:42:18.545Z,,,d,true,d,0,394.4130000119185,response,eR.jpg,d,keypress(j),84909.5,84908.30000001192,84497.224,84499.60000002384,84513.887,84933.622,
フィードバック(0.5秒),canvas.Screen,10_1_4,2023-01-16T05:42:19.050Z,,,d,,,0,496.8539999999921,timeout,eR.jpg,,,85414.60000002384,85413.788,84909.996,84913,84933.622,85430.476,
トライアル,flow.Sequence,10_1,2023-01-16T05:42:19.051Z,,,d,,,0,2899.6699999999983,completion,eR.jpg,,,85415,85413.788,82497.481,82498.40000003576,82514.118,85430.476,
空白時間1 (0.5秒),canvas.Screen,10_2_0,2023-01-16T05:42:19.550Z,,,b,,,0,499.8890000000101,timeout,e.jpg,,,85914.30000001192,85913.689,85413.788,85415.20000004768,85430.476,85930.365,
注視(1秒),canvas.Screen,10_2_1,2023-01-16T05:42:20.550Z,,,b,,,0,999.8469999999943,timeout,e.jpg,,,86914.30000001192,86913.564,85913.689,85914.30000001192,85930.365,86930.212,
空白時間2 (0.5秒),canvas.Screen,10_2_2,2023-01-16T05:42:21.050Z,,,b,,,0,499.91999999999825,timeout,e.jpg,,,87414.20000004768,87413.48,86913.564,86914.5,86930.212,87430.132,
刺激提示,canvas.Screen,10_2_3,2023-01-16T05:42:21.417Z,,,b,true,b,0,349.8680000000022,response,e.jpg,b,keypress(f),87781.10000002384,87780,87413.48,87414.40000003576,87430.132,87796.802,
フィードバック(0.5秒),canvas.Screen,10_2_4,2023-01-16T05:42:21.918Z,,,b,,,0,499.97000000000116,timeout,e.jpg,,,88282,88280.051,87780.101,87783.40000003576,87796.802,88296.772,
トライアル,flow.Sequence,10_2,2023-01-16T05:42:21.918Z,,,b,,,0,2849.5750000000116,completion,e.jpg,,,88282.30000001192,88280.051,85413.788,85415.20000004768,85430.476,88296.772,
空白時間1 (0.5秒),canvas.Screen,10_3_0,2023-01-16T05:42:22.417Z,,,b,,,225,499.93300000000454,timeout,e.jpg,,,88780.90000003576,88780.031,88280.051,88282.60000002384,88296.772,88796.705,
注視(1秒),canvas.Screen,10_3_1,2023-01-16T05:42:23.417Z,,,b,,,225,999.906999999992,timeout,e.jpg,,,89780.70000004768,89779.935,88780.031,88781.30000001192,88796.705,89796.612,
空白時間2 (0.5秒),canvas.Screen,10_3_2,2023-01-16T05:42:23.918Z,,,b,,,225,499.8530000000028,timeout,e.jpg,,,90281.80000001192,90279.817,89779.935,89781,89796.612,90296.465,
刺激提示,canvas.Screen,10_3_3,2023-01-16T05:42:24.544Z,,,b,true,b,225,610.8350000119244,response,e.jpg,b,keypress(f),90907.90000003576,90907.30000001192,90279.817,90281.90000003576,90296.465,90929.742,
フィードバック(0.5秒),canvas.Screen,10_3_4,2023-01-16T05:42:25.049Z,,,b,,,225,499.9459999999963,timeout,e.jpg,,,91413.5,91412.942,90913.214,90916.30000001192,90929.742,91429.688,
トライアル,flow.Sequence,10_3,2023-01-16T05:42:25.049Z,,,b,,,225,3116.1699999999983,completion,e.jpg,,,91413.70000004768,91412.942,88280.051,88282.40000003576,88296.772,91429.688,
空白時間1 (0.5秒),canvas.Screen,10_4_0,2023-01-16T05:42:25.551Z,,,d,,,315,499.88000000000466,timeout,eR.jpg,,,91915.5,91912.941,91412.942,91413.70000004768,91429.688,91929.568,
注視(1秒),canvas.Screen,10_4_1,2023-01-16T05:42:26.549Z,,,d,,,315,999.9860000000044,timeout,eR.jpg,,,92913.20000004768,92912.735,91912.941,91915.60000002384,91929.568,92929.554,
空白時間2 (0.5秒),canvas.Screen,10_4_2,2023-01-16T05:42:27.050Z,,,d,,,315,499.76900000000023,timeout,eR.jpg,,,93414.20000004768,93412.649,92912.735,92913.40000003576,92929.554,93429.323,
刺激提示,canvas.Screen,10_4_3,2023-01-16T05:42:27.453Z,,,d,true,d,315,387.17699999999604,response,eR.jpg,d,keypress(j),93817.40000003576,93816.5,93412.649,93414.40000003576,93429.323,93829.266,
フィードバック(0.5秒),canvas.Screen,10_4_4,2023-01-16T05:42:27.949Z,,,d,,,315,500.0829999999987,timeout,eR.jpg,,,94313.30000001192,94312.658,93818.262,93819.40000003576,93829.266,94329.349,
トライアル,flow.Sequence,10_4,2023-01-16T05:42:27.949Z,,,d,,,315,2882.970000000001,completion,eR.jpg,,,94313.60000002384,94312.658,91412.942,91413.70000004768,91429.688,94329.349,
空白時間1 (0.5秒),canvas.Screen,10_5_0,2023-01-16T05:42:28.449Z,,,b,,,270,500.08000000000175,timeout,e.jpg,,,94813.40000003576,94812.632,94312.658,94313.70000004768,94329.349,94829.429,
注視(1秒),canvas.Screen,10_5_1,2023-01-16T05:42:29.450Z,,,b,,,270,999.5669999999955,timeout,e.jpg,,,95814.20000004768,95812.376,94812.632,94813.60000002384,94829.429,95828.996,
空白時間2 (0.5秒),canvas.Screen,10_5_2,2023-01-16T05:42:29.949Z,,,b,,,270,500.0399999999936,timeout,e.jpg,,,96313.20000004768,96312.631,95812.376,95814.30000001192,95828.996,96329.036,
刺激提示,canvas.Screen,10_5_3,2023-01-16T05:42:30.395Z,,,b,true,b,270,429.5640000238491,response,e.jpg,b,keypress(f),96759.30000001192,96758.60000002384,96312.631,96313.5,96329.036,96778.847,
フィードバック(0.5秒),canvas.Screen,10_5_4,2023-01-16T05:42:30.899Z,,,b,,,270,499.9389999999985,timeout,e.jpg,,,97263.5,97262.161,96762.325,96767.70000004768,96778.847,97278.786,
トライアル,flow.Sequence,10_5,2023-01-16T05:42:30.900Z,,,b,,,270,2932.811999999991,completion,e.jpg,,,97263.80000001192,97262.161,94312.658,94313.70000004768,94329.349,97278.786,
空白時間1 (0.5秒),canvas.Screen,10_6_0,2023-01-16T05:42:31.399Z,,,d,,,135,500.02500000000873,timeout,eR.jpg,,,97762.70000004768,97762.107,97262.161,97263.90000003576,97278.786,97778.811,
注視(1秒),canvas.Screen,10_6_1,2023-01-16T05:42:32.399Z,,,d,,,135,999.7880000000005,timeout,eR.jpg,,,98762.90000003576,98762.086,97762.107,97762.80000001192,97778.811,98778.599,
空白時間2 (0.5秒),canvas.Screen,10_6_2,2023-01-16T05:42:32.898Z,,,d,,,135,499.9360000000015,timeout,eR.jpg,,,99262.40000003576,99261.877,98762.086,98773.20000004768,98778.599,99278.535,
刺激提示,canvas.Screen,10_6_3,2023-01-16T05:42:33.543Z,,,d,true,d,135,627.1650000476802,response,eR.jpg,d,keypress(j),99906.70000004768,99905.70000004768,99261.877,99262.70000004768,99278.535,99911.77,
フィードバック(0.5秒),canvas.Screen,10_6_4,2023-01-16T05:42:34.032Z,,,d,,,135,500.0069999999978,timeout,eR.jpg,,,100395.80000001192,100395.131,99895.179,99907.70000004768,99911.77,100411.777,
トライアル,flow.Sequence,10_6,2023-01-16T05:42:34.032Z,,,d,,,135,3116.345000000001,completion,eR.jpg,,,100395.90000003576,100395.131,97262.161,97263.80000001192,97278.786,100411.777,
空白時間1 (0.5秒),canvas.Screen,10_7_0,2023-01-16T05:42:34.532Z,,,b,,,135,499.8619999999937,timeout,e.jpg,,,100895.70000004768,100895.233,100395.131,100396,100411.777,100911.639,
注視(1秒),canvas.Screen,10_7_1,2023-01-16T05:42:35.531Z,,,b,,,135,999.8760000000038,timeout,e.jpg,,,101895.5,101894.962,100895.233,100895.90000003576,100911.639,101911.515,
空白時間2 (0.5秒),canvas.Screen,10_7_2,2023-01-16T05:42:36.031Z,,,b,,,135,499.9630000000034,timeout,e.jpg,,,102395.5,102394.951,101894.962,101895.5,101911.515,102411.478,
刺激提示,canvas.Screen,10_7_3,2023-01-16T05:42:36.676Z,,,b,true,b,135,628.1220000238391,response,e.jpg,b,keypress(f),103040.30000001192,103039.60000002384,102394.951,102395.70000004768,102411.478,103061.364,
フィードバック(0.5秒),canvas.Screen,10_7_4,2023-01-16T05:42:37.182Z,,,b,,,135,499.9689999999973,timeout,e.jpg,,,103545.70000004768,103544.714,103044.753,103051.90000003576,103061.364,103561.333,
トライアル,flow.Sequence,10_7,2023-01-16T05:42:37.182Z,,,b,,,135,3132.9370000000054,completion,e.jpg,,,103545.90000003576,103544.714,100395.131,100396,100411.777,103561.333,
空白時間1 (0.5秒),canvas.Screen,10_8_0,2023-01-16T05:42:37.681Z,,,b,,,45,500.0430000000051,timeout,e.jpg,,,104045.40000003576,104044.647,103544.714,103546,103561.333,104061.376,
注視(1秒),canvas.Screen,10_8_1,2023-01-16T05:42:38.681Z,,,b,,,45,999.8680000000022,timeout,e.jpg,,,105045,105044.453,104044.647,104045.40000003576,104061.376,105061.244,
空白時間2 (0.5秒),canvas.Screen,10_8_2,2023-01-16T05:42:39.181Z,,,b,,,45,499.8799999999901,timeout,e.jpg,,,105545.10000002384,105544.485,105044.453,105045.10000002384,105061.244,105561.124,
刺激提示,canvas.Screen,10_8_3,2023-01-16T05:42:39.527Z,,,b,true,b,45,329.17600001192477,response,e.jpg,b,keypress(f),105890.90000003576,105890.30000001192,105544.485,105545.20000004768,105561.124,105894.318,
フィードバック(0.5秒),canvas.Screen,10_8_4,2023-01-16T05:42:40.014Z,,,b,,,45,500.00500000000466,timeout,e.jpg,,,106378.5,106377.785,105883.963,105892.30000001192,105894.318,106394.323,
トライアル,flow.Sequence,10_8,2023-01-16T05:42:40.014Z,,,b,,,45,2816.452000000005,completion,e.jpg,,,106378.60000002384,106377.785,103544.714,103545.90000003576,103561.333,106394.323,
空白時間1 (0.5秒),canvas.Screen,10_9_0,2023-01-16T05:42:40.515Z,,,d,,,270,499.9459999999963,timeout,eR.jpg,,,106879.60000002384,106877.627,106377.785,106378.60000002384,106394.323,106894.269,
注視(1秒),canvas.Screen,10_9_1,2023-01-16T05:42:41.514Z,,,d,,,270,999.8730000000069,timeout,eR.jpg,,,107878.10000002384,107877.511,106877.627,106879.70000004768,106894.269,107894.142,
空白時間2 (0.5秒),canvas.Screen,10_9_2,2023-01-16T05:42:42.014Z,,,d,,,270,499.875,timeout,eR.jpg,,,108378.10000002384,108377.472,107877.511,107878.30000001192,107894.142,108394.017,
刺激提示,canvas.Screen,10_9_3,2023-01-16T05:42:42.575Z,,,d,true,d,270,544.8830000357557,response,eR.jpg,d,keypress(j),108939.5,108938.90000003576,108377.472,108378.40000003576,108394.017,108960.656,
フィードバック(0.5秒),canvas.Screen,10_9_4,2023-01-16T05:42:43.081Z,,,d,,,270,499.86599999999453,timeout,eR.jpg,,,109445.70000004768,109444.039,108944.183,108948.30000001192,108960.656,109460.522,
トライアル,flow.Sequence,10_9,2023-01-16T05:42:43.082Z,,,d,,,270,3049.7160000000003,completion,eR.jpg,,,109446,109444.039,106377.785,106378.60000002384,106394.323,109460.522,
空白時間1 (0.5秒),canvas.Screen,10_10_0,2023-01-16T05:42:43.580Z,,,d,,,90,500.2280000000028,timeout,eR.jpg,,,109944.30000001192,109943.793,109444.039,109446.10000002384,109460.522,109960.75,
注視(1秒),canvas.Screen,10_10_1,2023-01-16T05:42:44.580Z,,,d,,,90,999.6359999999986,timeout,eR.jpg,,,110944.60000002384,110943.856,109943.793,109944.40000003576,109960.75,110960.386,
空白時間2 (0.5秒),canvas.Screen,10_10_2,2023-01-16T05:42:45.080Z,,,d,,,90,500.11299999999756,timeout,eR.jpg,,,111444.40000003576,111443.746,110943.856,110944.80000001192,110960.386,111460.499,
刺激提示,canvas.Screen,10_10_3,2023-01-16T05:42:45.647Z,,,d,true,d,90,550.7010000476876,response,eR.jpg,d,keypress(j),112011.90000003576,112011.20000004768,111443.746,111444.5,111460.499,112043.505,
フィードバック(0.5秒),canvas.Screen,10_10_4,2023-01-16T05:42:46.163Z,,,d,,,90,499.9349999999977,timeout,eR.jpg,,,112527.60000002384,112526.973,112026.893,112031,112043.505,112543.44,
トライアル,flow.Sequence,10_10,2023-01-16T05:42:46.163Z,,,d,,,90,3066.451000000001,completion,eR.jpg,,,112527.80000001192,112526.973,109444.039,109446.10000002384,109460.522,112543.44,
空白時間1 (0.5秒),canvas.Screen,10_11_0,2023-01-16T05:42:46.663Z,,,d,,,225,499.96399999999267,timeout,eR.jpg,,,113027.5,113026.951,112526.973,112528,112543.44,113043.404,
注視(1秒),canvas.Screen,10_11_1,2023-01-16T05:42:47.663Z,,,d,,,225,999.8920000000071,timeout,eR.jpg,,,114027.40000003576,114026.766,113026.951,113027.60000002384,113043.404,114043.296,
空白時間2 (0.5秒),canvas.Screen,10_11_2,2023-01-16T05:42:48.163Z,,,d,,,225,499.8790000000008,timeout,eR.jpg,,,114527.20000004768,114526.718,114026.766,114027.60000002384,114043.296,114543.175,
刺激提示,canvas.Screen,10_11_3,2023-01-16T05:42:48.545Z,,,d,false,d,225,365.7250000357599,response,eR.jpg,b,keypress(f),114909.60000002384,114908.90000003576,114526.718,114527.30000001192,114543.175,114926.531,
フィードバック(0.5秒),canvas.Screen,10_11_4,2023-01-16T05:42:49.046Z,,,d,,,225,499.9689999999973,timeout,eR.jpg,,,115410.30000001192,115409.848,114897.982,114910.80000001192,114926.531,115426.5,
トライアル,flow.Sequence,10_11,2023-01-16T05:42:49.047Z,,,d,,,225,2866.407999999996,completion,eR.jpg,,,115412,115409.848,112526.973,112527.90000003576,112543.44,115426.5,
空白時間1 (0.5秒),canvas.Screen,10_12_0,2023-01-16T05:42:49.546Z,,,d,,,45,499.9180000000051,timeout,eR.jpg,,,115910.10000002384,115909.701,115409.848,115412.10000002384,115426.5,115926.418,
注視(1秒),canvas.Screen,10_12_1,2023-01-16T05:42:50.546Z,,,d,,,45,999.8459999999905,timeout,eR.jpg,,,116910.30000001192,116909.684,115909.701,115910.20000004768,115926.418,116926.264,
空白時間2 (0.5秒),canvas.Screen,10_12_2,2023-01-16T05:42:51.046Z,,,d,,,45,499.9120000000112,timeout,eR.jpg,,,117410.20000004768,117409.599,116909.684,116910.40000003576,116926.264,117426.176,
刺激提示,canvas.Screen,10_12_3,2023-01-16T05:42:51.462Z,,,d,true,d,45,399.6240000119142,response,eR.jpg,d,keypress(j),117826.40000003576,117825.80000001192,117409.599,117410.30000001192,117426.176,117842.758,
フィードバック(0.5秒),canvas.Screen,10_12_4,2023-01-16T05:42:51.962Z,,,d,,,45,499.9799999999959,timeout,eR.jpg,,,118326.5,118326.141,117811.896,117827.40000003576,117842.758,118342.738,
トライアル,flow.Sequence,10_12,2023-01-16T05:42:51.962Z,,,d,,,45,2899.6410000000033,completion,eR.jpg,,,118326.70000004768,118326.141,115409.848,115412.10000002384,115426.5,118342.738,
空白時間1 (0.5秒),canvas.Screen,10_13_0,2023-01-16T05:42:52.462Z,,,b,,,180,499.95900000000256,timeout,e.jpg,,,118826.70000004768,118826.043,118326.141,118326.70000004768,118342.738,118842.697,
注視(1秒),canvas.Screen,10_13_1,2023-01-16T05:42:53.462Z,,,b,,,180,999.820000000007,timeout,e.jpg,,,119826.90000003576,119826.073,118826.043,118826.80000001192,118842.697,119842.517,
空白時間2 (0.5秒),canvas.Screen,10_13_2,2023-01-16T05:42:53.962Z,,,b,,,180,500.29899999999907,timeout,e.jpg,,,120326.5,120325.828,119826.073,119827,119842.517,120342.816,
刺激提示,canvas.Screen,10_13_3,2023-01-16T05:42:54.631Z,,,b,true,b,180,651.5840000357566,response,e.jpg,b,keypress(f),120995.20000004768,120994.40000003576,120325.828,120326.60000002384,120342.816,121029.963,
フィードバック(0.5秒),canvas.Screen,10_13_4,2023-01-16T05:42:55.145Z,,,b,,,180,495.7019999999902,timeout,e.jpg,,,121509.40000003576,121508.941,120998.646,121008.60000002384,121029.963,121525.665,
トライアル,flow.Sequence,10_13,2023-01-16T05:42:55.145Z,,,b,,,180,3166.2030000000086,completion,e.jpg,,,121509.60000002384,121508.941,118326.141,118326.70000004768,118342.738,121525.665,
空白時間1 (0.5秒),canvas.Screen,10_14_0,2023-01-16T05:42:55.645Z,,,b,,,315,500.0570000000007,timeout,e.jpg,,,122009.40000003576,122008.917,121508.941,121509.60000002384,121525.665,122025.722,
注視(1秒),canvas.Screen,10_14_1,2023-01-16T05:42:56.645Z,,,b,,,315,999.6770000000106,timeout,e.jpg,,,123009.60000002384,123008.84,122008.917,122009.60000002384,122025.722,123025.399,
空白時間2 (0.5秒),canvas.Screen,10_14_2,2023-01-16T05:42:57.145Z,,,b,,,315,500.01299999999173,timeout,e.jpg,,,123509.5,123508.802,123008.84,123009.70000004768,123025.399,123525.412,
刺激提示,canvas.Screen,10_14_3,2023-01-16T05:42:57.595Z,,,b,true,b,315,433.2880000476871,response,e.jpg,b,keypress(f),123959.60000002384,123958.70000004768,123508.802,123509.60000002384,123525.412,123975.271,
フィードバック(0.5秒),canvas.Screen,10_14_4,2023-01-16T05:42:58.095Z,,,b,,,315,499.9630000000034,timeout,e.jpg,,,124459,124458.611,123958.814,123960.80000001192,123975.271,124475.234,
トライアル,flow.Sequence,10_14,2023-01-16T05:42:58.095Z,,,b,,,315,2932.946000000011,completion,e.jpg,,,124459.30000001192,124458.611,121508.941,121509.60000002384,121525.665,124475.234,
空白時間1 (0.5秒),canvas.Screen,10_15_0,2023-01-16T05:42:58.594Z,,,b,,,90,499.91500000000815,timeout,e.jpg,,,124959,124958.491,124458.611,124459.5,124475.234,124975.149,
注視(1秒),canvas.Screen,10_15_1,2023-01-16T05:42:59.595Z,,,b,,,90,999.8709999999992,timeout,e.jpg,,,125959.10000002384,125958.361,124958.491,124959.10000002384,124975.149,125975.02,
空白時間2 (0.5秒),canvas.Screen,10_15_2,2023-01-16T05:43:00.094Z,,,b,,,90,500.08699999999953,timeout,e.jpg,,,126458.70000004768,126458.392,125958.361,125959.30000001192,125975.02,126475.107,
刺激提示,canvas.Screen,10_15_3,2023-01-16T05:43:00.617Z,,,b,true,b,90,505.1930000119173,response,e.jpg,b,keypress(f),126981.10000002384,126980.30000001192,126458.392,126458.80000001192,126475.107,127025.115,
フィードバック(0.5秒),canvas.Screen,10_15_4,2023-01-16T05:43:01.144Z,,,b,,,90,499.69899999999325,timeout,e.jpg,,,127508.70000004768,127508.212,127008.296,126991.20000004768,127025.115,127524.814,
トライアル,flow.Sequence,10_15,2023-01-16T05:43:01.144Z,,,b,,,90,3032.978000000003,completion,e.jpg,,,127508.90000003576,127508.212,124458.611,124459.40000003576,124475.234,127524.814,
タスクのセット,flow.Loop,10,2023-01-16T05:43:01.144Z,,,,,,,48093.596999999994,completion,,,,127509,127508.212,79397.861,79398.80000001192,79414.615,127524.814,
空白時間1 (0.5秒),canvas.Screen,11_0_0,2023-01-16T05:43:01.644Z,,,d,,,180,499.9630000000034,timeout,eR.jpg,,,128009,128008.17,127508.212,127509.10000002384,127524.814,128024.777,
注視(1秒),canvas.Screen,11_0_1,2023-01-16T05:43:02.644Z,,,d,,,180,999.8359999999957,timeout,eR.jpg,,,129008.60000002384,129008.028,128008.17,128009.10000002384,128024.777,129024.613,
空白時間2 (0.5秒),canvas.Screen,11_0_2,2023-01-16T05:43:03.144Z,,,d,,,180,500.0590000000084,timeout,eR.jpg,,,129508.60000002384,129507.974,129008.028,129008.70000004768,129024.613,129524.672,
刺激提示,canvas.Screen,11_0_3,2023-01-16T05:43:03.869Z,,,d,true,d,180,707.628000011915,response,eR.jpg,d,keypress(j),130233.20000004768,130232.30000001192,129507.974,129508.90000003576,129524.672,130257.865,
フィードバック(0.5秒),canvas.Screen,11_0_4,2023-01-16T05:43:04.377Z,,,d,,,180,499.8439999999973,timeout,eR.jpg,,,130741.70000004768,130741.039,130241.219,130246.20000004768,130257.865,130757.709,
トライアル,flow.Sequence,11_0,2023-01-16T05:43:04.377Z,,,d,,,180,3216.225000000006,completion,eR.jpg,,,130742,130741.039,127508.212,127509.10000002384,127524.814,130757.709,
空白時間1 (0.5秒),canvas.Screen,11_1_0,2023-01-16T05:43:04.877Z,,,d,,,270,499.97000000000116,timeout,eR.jpg,,,131241.5,131240.984,130741.039,130742.20000004768,130757.709,131257.679,
注視(1秒),canvas.Screen,11_1_1,2023-01-16T05:43:05.877Z,,,d,,,270,999.8800000000047,timeout,eR.jpg,,,132241.5,132240.864,131240.984,131241.60000002384,131257.679,132257.559,
空白時間2 (0.5秒),canvas.Screen,11_1_2,2023-01-16T05:43:06.377Z,,,d,,,270,499.96899999998277,timeout,eR.jpg,,,132741.20000004768,132740.763,132240.864,132241.70000004768,132257.559,132757.528,
刺激提示,canvas.Screen,11_1_3,2023-01-16T05:43:06.772Z,,,d,true,d,270,377.7720000119298,response,eR.jpg,d,keypress(j),133136.90000003576,133135.30000001192,132740.763,132741.40000003576,132757.528,133140.736,
フィードバック(0.5秒),canvas.Screen,11_1_4,2023-01-16T05:43:07.260Z,,,d,,,270,500.2299999999814,timeout,eR.jpg,,,133624.70000004768,133624.172,133124.069,133138.30000001192,133140.736,133640.966,
トライアル,flow.Sequence,11_1,2023-01-16T05:43:07.260Z,,,d,,,270,2866.462999999989,completion,eR.jpg,,,133624.90000003576,133624.172,130741.039,130742.10000002384,130757.709,133640.966,
空白時間1 (0.5秒),canvas.Screen,11_2_0,2023-01-16T05:43:07.761Z,,,b,,,180,499.6380000000063,timeout,e.jpg,,,134125.20000004768,134123.986,133624.172,133625,133640.966,134140.604,
注視(1秒),canvas.Screen,11_2_1,2023-01-16T05:43:08.760Z,,,b,,,180,1000.3610000000044,timeout,e.jpg,,,135124.60000002384,135123.927,134123.986,134125.30000001192,134140.604,135140.965,
空白時間2 (0.5秒),canvas.Screen,11_2_2,2023-01-16T05:43:09.260Z,,,b,,,180,499.4189999999944,timeout,e.jpg,,,135624.10000002384,135623.858,135123.927,135124.80000001192,135140.965,135640.384,
刺激提示,canvas.Screen,11_2_3,2023-01-16T05:43:09.905Z,,,b,true,b,180,628.0160000357719,response,e.jpg,b,keypress(f),136269.20000004768,136268.40000003576,135623.858,135624.30000001192,135640.384,136290.35,
フィードバック(0.5秒),canvas.Screen,11_2_4,2023-01-16T05:43:10.410Z,,,b,,,180,499.9649999999965,timeout,e.jpg,,,136774.5,136773.676,136277.487,136281.80000001192,136290.35,136790.315,
トライアル,flow.Sequence,11_2,2023-01-16T05:43:10.410Z,,,b,,,180,3132.710000000021,completion,e.jpg,,,136774.70000004768,136773.676,133624.172,133625,133640.966,136790.315,
空白時間1 (0.5秒),canvas.Screen,11_3_0,2023-01-16T05:43:10.910Z,,,b,,,45,499.96100000001024,timeout,e.jpg,,,137274.20000004768,137273.579,136773.676,136774.80000001192,136790.315,137290.276,
注視(1秒),canvas.Screen,11_3_1,2023-01-16T05:43:11.913Z,,,b,,,45,999.7599999999802,timeout,e.jpg,,,138277.10000002384,138273.51,137273.579,137274.30000001192,137290.276,138290.036,
空白時間2 (0.5秒),canvas.Screen,11_3_2,2023-01-16T05:43:12.410Z,,,b,,,45,500.0590000000084,timeout,e.jpg,,,138774.10000002384,138773.464,138273.51,138277.10000002384,138290.036,138790.095,
刺激提示,canvas.Screen,11_3_3,2023-01-16T05:43:12.831Z,,,b,true,b,45,404.60500004768255,response,e.jpg,b,keypress(f),139195.30000001192,139194.70000004768,138773.464,138774.20000004768,138790.095,139206.731,
フィードバック(0.5秒),canvas.Screen,11_3_4,2023-01-16T05:43:13.328Z,,,b,,,45,499.77999999999884,timeout,e.jpg,,,139692.30000001192,139690.068,139190.083,139196.10000002384,139206.731,139706.511,
トライアル,flow.Sequence,11_3,2023-01-16T05:43:13.328Z,,,b,,,45,2899.752999999997,completion,e.jpg,,,139692.5,139690.068,136773.676,136774.80000001192,136790.315,139706.511,
空白時間1 (0.5秒),canvas.Screen,11_4_0,2023-01-16T05:43:13.826Z,,,b,,,0,499.9770000000135,timeout,e.jpg,,,140190.60000002384,140189.835,139690.068,139692.80000001192,139706.511,140206.488,
注視(1秒),canvas.Screen,11_4_1,2023-01-16T05:43:14.826Z,,,b,,,0,999.8219999999856,timeout,e.jpg,,,141190.40000003576,141189.741,140189.835,140190.80000001192,140206.488,141206.31,
空白時間2 (0.5秒),canvas.Screen,11_4_2,2023-01-16T05:43:15.326Z,,,b,,,0,499.95000000001164,timeout,e.jpg,,,141690.30000001192,141689.785,141189.741,141190.5,141206.31,141706.26,
刺激提示,canvas.Screen,11_4_3,2023-01-16T05:43:15.764Z,,,b,true,b,0,421.1400000357535,response,e.jpg,b,keypress(f),142128.10000002384,142127.40000003576,141689.785,141690.5,141706.26,142139.642,
フィードバック(0.5秒),canvas.Screen,11_4_4,2023-01-16T05:43:16.259Z,,,b,,,0,499.89400000000023,timeout,e.jpg,,,142623.60000002384,142622.862,142123.088,142136.20000004768,142139.642,142639.536,
トライアル,flow.Sequence,11_4,2023-01-16T05:43:16.259Z,,,b,,,0,2916.350999999995,completion,e.jpg,,,142623.80000001192,142622.862,139690.068,139692.70000004768,139706.511,142639.536,
空白時間1 (0.5秒),canvas.Screen,11_5_0,2023-01-16T05:43:16.761Z,,,d,,,90,499.8520000000135,timeout,eR.jpg,,,143125.30000001192,143122.754,142622.862,142623.80000001192,142639.536,143139.388,
注視(1秒),canvas.Screen,11_5_1,2023-01-16T05:43:17.759Z,,,d,,,90,1000.0089999999909,timeout,eR.jpg,,,144123.10000002384,144122.616,143122.754,143125.30000001192,143139.388,144139.397,
空白時間2 (0.5秒),canvas.Screen,11_5_2,2023-01-16T05:43:18.259Z,,,d,,,90,499.8379999999888,timeout,eR.jpg,,,144623.10000002384,144622.542,144122.616,144123.20000004768,144139.397,144639.235,
刺激提示,canvas.Screen,11_5_3,2023-01-16T05:43:18.663Z,,,d,true,d,90,387.5650000119349,response,eR.jpg,d,keypress(j),145027.5,145026.80000001192,144622.542,144623.30000001192,144639.235,145039.226,
フィードバック(0.5秒),canvas.Screen,11_5_4,2023-01-16T05:43:19.158Z,,,d,,,90,499.9180000000051,timeout,eR.jpg,,,145522.90000003576,145522.501,145022.456,145029.20000004768,145039.226,145539.144,
トライアル,flow.Sequence,11_5,2023-01-16T05:43:19.159Z,,,d,,,90,2882.9649999999965,completion,eR.jpg,,,145523.10000002384,145522.501,142622.862,142623.80000001192,142639.536,145539.144,
空白時間1 (0.5秒),canvas.Screen,11_6_0,2023-01-16T05:43:19.659Z,,,d,,,225,499.8969999999972,timeout,eR.jpg,,,146023.20000004768,146022.355,145522.501,145523.20000004768,145539.144,146039.041,
注視(1秒),canvas.Screen,11_6_1,2023-01-16T05:43:20.658Z,,,d,,,225,999.8300000000163,timeout,eR.jpg,,,147022.80000001192,147022.227,146022.355,146023.30000001192,146039.041,147038.871,
空白時間2 (0.5秒),canvas.Screen,11_6_2,2023-01-16T05:43:21.158Z,,,d,,,225,500.01699999999255,timeout,eR.jpg,,,147522.80000001192,147522.21,147022.227,147023,147038.871,147538.888,
刺激提示,canvas.Screen,11_6_3,2023-01-16T05:43:21.640Z,,,d,true,d,225,465.21200002383557,response,eR.jpg,d,keypress(j),148004.80000001192,148004.10000002384,147522.21,147522.90000003576,147538.888,148022.076,
フィードバック(0.5秒),canvas.Screen,11_6_4,2023-01-16T05:43:22.142Z,,,d,,,225,499.9219999999914,timeout,eR.jpg,,,148506.20000004768,148505.471,148005.645,148006.30000001192,148022.076,148521.998,
トライアル,flow.Sequence,11_6,2023-01-16T05:43:22.142Z,,,d,,,225,2966.32699999999,completion,eR.jpg,,,148506.30000001192,148505.471,145522.501,145523.20000004768,145539.144,148521.998,
空白時間1 (0.5秒),canvas.Screen,11_7_0,2023-01-16T05:43:22.642Z,,,d,,,315,499.94899999999325,timeout,eR.jpg,,,149006.10000002384,149005.374,148505.471,148506.5,148521.998,149021.947,
注視(1秒),canvas.Screen,11_7_1,2023-01-16T05:43:23.641Z,,,d,,,315,999.8830000000016,timeout,eR.jpg,,,150005.70000004768,150005.222,149005.374,149006.10000002384,149021.947,150021.83,
空白時間2 (0.5秒),canvas.Screen,11_7_2,2023-01-16T05:43:24.141Z,,,d,,,315,500.6380000000063,timeout,eR.jpg,,,150505.40000003576,150505.122,150005.222,150005.90000003576,150021.83,150522.468,
刺激提示,canvas.Screen,11_7_3,2023-01-16T05:43:24.631Z,,,d,true,d,315,472.73200004769024,response,eR.jpg,d,keypress(j),150995.80000001192,150995.20000004768,150505.122,150505.60000002384,150522.468,151025.717,
フィードバック(0.5秒),canvas.Screen,11_7_4,2023-01-16T05:43:25.141Z,,,d,,,315,496.0229999999865,timeout,eR.jpg,,,151505.70000004768,151504.991,150988.482,151004.5,151025.717,151521.74,
トライアル,flow.Sequence,11_7,2023-01-16T05:43:25.141Z,,,d,,,315,2982.9930000000168,completion,eR.jpg,,,151506,151504.991,148505.471,148506.5,148521.998,151521.74,
空白時間1 (0.5秒),canvas.Screen,11_8_0,2023-01-16T05:43:25.643Z,,,d,,,45,499.8060000000114,timeout,eR.jpg,,,152007.40000003576,152005.06,151504.991,151506.10000002384,151521.74,152021.546,
注視(1秒),canvas.Screen,11_8_1,2023-01-16T05:43:26.641Z,,,d,,,45,999.8580000000075,timeout,eR.jpg,,,153005.5,153004.986,152005.06,152007.5,152021.546,153021.404,
空白時間2 (0.5秒),canvas.Screen,11_8_2,2023-01-16T05:43:27.141Z,,,d,,,45,500.0339999999851,timeout,eR.jpg,,,153505.5,153504.707,153004.986,153005.60000002384,153021.404,153521.438,
刺激提示,canvas.Screen,11_8_3,2023-01-16T05:43:27.561Z,,,d,true,d,45,403.26200004768907,response,eR.jpg,d,keypress(j),153925.5,153924.70000004768,153504.707,153505.60000002384,153521.438,153938.073,
フィードバック(0.5秒),canvas.Screen,11_8_4,2023-01-16T05:43:28.058Z,,,d,,,45,499.92399999999907,timeout,eR.jpg,,,154422.80000001192,154421.253,153921.444,153926.5,153938.073,154437.997,
トライアル,flow.Sequence,11_8,2023-01-16T05:43:28.058Z,,,d,,,45,2899.5130000000063,completion,eR.jpg,,,154423,154421.253,151504.991,151506.10000002384,151521.74,154437.997,
空白時間1 (0.5秒),canvas.Screen,11_9_0,2023-01-16T05:43:28.557Z,,,b,,,225,499.8969999999972,timeout,e.jpg,,,154921.70000004768,154921.21,154421.253,154423.10000002384,154437.997,154937.894,
注視(1秒),canvas.Screen,11_9_1,2023-01-16T05:43:29.557Z,,,b,,,225,999.8859999999986,timeout,e.jpg,,,155921.80000001192,155921.083,154921.21,154921.90000003576,154937.894,155937.78,
空白時間2 (0.5秒),canvas.Screen,11_9_2,2023-01-16T05:43:30.057Z,,,b,,,225,499.93700000000536,timeout,e.jpg,,,156421.30000001192,156420.973,155921.083,155922.5,155937.78,156437.717,
刺激提示,canvas.Screen,11_9_3,2023-01-16T05:43:30.517Z,,,b,true,b,225,443.4830000476795,response,e.jpg,b,keypress(f),156882,156881.20000004768,156420.973,156421.5,156437.717,156904.279,
フィードバック(0.5秒),canvas.Screen,11_9_4,2023-01-16T05:43:31.023Z,,,b,,,225,499.92799999998533,timeout,e.jpg,,,157387.90000003576,157387.619,156887.687,156893.60000002384,156904.279,157404.207,
トライアル,flow.Sequence,11_9,2023-01-16T05:43:31.024Z,,,b,,,225,2949.622000000003,completion,e.jpg,,,157388,157387.619,154421.253,154423,154437.997,157404.207,
空白時間1 (0.5秒),canvas.Screen,11_10_0,2023-01-16T05:43:31.524Z,,,b,,,270,499.9770000000135,timeout,e.jpg,,,157888.40000003576,157887.554,157387.619,157388.10000002384,157404.207,157904.184,
注視(1秒),canvas.Screen,11_10_1,2023-01-16T05:43:32.523Z,,,b,,,270,999.8150000000023,timeout,e.jpg,,,158888,158887.397,157887.554,157888.5,157904.184,158903.999,
空白時間2 (0.5秒),canvas.Screen,11_10_2,2023-01-16T05:43:33.024Z,,,b,,,270,500.0129999999772,timeout,e.jpg,,,159388.20000004768,159387.421,158887.397,158888.20000004768,158903.999,159404.012,
刺激提示,canvas.Screen,11_10_3,2023-01-16T05:43:33.383Z,,,b,true,b,270,342.58800002385397,response,e.jpg,b,keypress(f),159747.30000001192,159746.60000002384,159387.421,159388.30000001192,159404.012,159753.994,
フィードバック(0.5秒),canvas.Screen,11_10_4,2023-01-16T05:43:33.873Z,,,b,,,270,499.8489999999874,timeout,e.jpg,,,160237.90000003576,160237.293,159737.268,159748.70000004768,159753.994,160253.843,
トライアル,flow.Sequence,11_10,2023-01-16T05:43:33.874Z,,,b,,,270,2833.0860000000102,completion,e.jpg,,,160238.10000002384,160237.293,157387.619,157388.10000002384,157404.207,160253.843,
空白時間1 (0.5秒),canvas.Screen,11_11_0,2023-01-16T05:43:34.374Z,,,b,,,90,499.98099999999977,timeout,e.jpg,,,160738.80000001192,160737.158,160237.293,160238.20000004768,160253.843,160753.824,
注視(1秒),canvas.Screen,11_11_1,2023-01-16T05:43:35.374Z,,,b,,,90,999.9750000000058,timeout,e.jpg,,,161738.70000004768,161737.054,160737.158,160738.90000003576,160753.824,161753.799,
空白時間2 (0.5秒),canvas.Screen,11_11_2,2023-01-16T05:43:35.873Z,,,b,,,90,499.8399999999965,timeout,e.jpg,,,162237.80000001192,162237.074,161737.054,161738.80000001192,161753.799,162253.639,
刺激提示,canvas.Screen,11_11_3,2023-01-16T05:43:36.464Z,,,b,true,b,90,573.7610000357672,response,e.jpg,b,keypress(f),162828.10000002384,162827.40000003576,162237.074,162238,162253.639,162853.638,
フィードバック(0.5秒),canvas.Screen,11_11_4,2023-01-16T05:43:36.973Z,,,b,,,90,499.80799999999,timeout,e.jpg,,,163337.5,163336.818,162836.871,162840.40000003576,162853.638,163353.446,
トライアル,flow.Sequence,11_11,2023-01-16T05:43:36.973Z,,,b,,,90,3082.975000000006,completion,e.jpg,,,163337.60000002384,163336.818,160237.293,160238.10000002384,160253.843,163353.446,
空白時間1 (0.5秒),canvas.Screen,11_12_0,2023-01-16T05:43:37.473Z,,,d,,,135,499.90499999999884,timeout,eR.jpg,,,163837.40000003576,163836.949,163336.818,163337.70000004768,163353.446,163853.351,
注視(1秒),canvas.Screen,11_12_1,2023-01-16T05:43:38.473Z,,,d,,,135,999.9709999999905,timeout,eR.jpg,,,164837.20000004768,164836.66,163836.949,163837.5,163853.351,164853.322,
空白時間2 (0.5秒),canvas.Screen,11_12_2,2023-01-16T05:43:38.973Z,,,d,,,135,499.91300000000047,timeout,eR.jpg,,,165337.20000004768,165336.559,164836.66,164837.30000001192,164853.322,165353.235,
刺激提示,canvas.Screen,11_12_3,2023-01-16T05:43:39.621Z,,,d,true,d,135,630.765000000014,response,eR.jpg,d,keypress(j),165985.80000001192,165984,165336.559,165337.20000004768,165353.235,166003.177,
フィードバック(0.5秒),canvas.Screen,11_12_4,2023-01-16T05:43:40.123Z,,,d,,,135,499.82399999999325,timeout,eR.jpg,,,166487,166486.38,165986.49,165987.30000001192,166003.177,166503.001,
トライアル,flow.Sequence,11_12,2023-01-16T05:43:40.123Z,,,d,,,135,3132.9340000000084,completion,eR.jpg,,,166487.30000001192,166486.38,163336.818,163337.70000004768,163353.446,166503.001,
空白時間1 (0.5秒),canvas.Screen,11_13_0,2023-01-16T05:43:40.623Z,,,b,,,315,499.99400000000605,timeout,e.jpg,,,166987.20000004768,166986.316,166486.38,166487.40000003576,166503.001,167002.995,
注視(1秒),canvas.Screen,11_13_1,2023-01-16T05:43:41.622Z,,,b,,,315,999.7520000000077,timeout,e.jpg,,,167986.80000001192,167986.22,166986.316,166987.30000001192,167002.995,168002.747,
空白時間2 (0.5秒),canvas.Screen,11_13_2,2023-01-16T05:43:42.122Z,,,b,,,315,500,timeout,e.jpg,,,168486.60000002384,168486.169,167986.22,167987,168002.747,168502.747,
刺激提示,canvas.Screen,11_13_3,2023-01-16T05:43:42.529Z,,,b,true,b,315,389.9530000476807,response,e.jpg,b,keypress(f),168893.40000003576,168892.70000004768,168486.169,168486.70000004768,168502.747,168919.531,
フィードバック(0.5秒),canvas.Screen,11_13_4,2023-01-16T05:43:43.039Z,,,b,,,315,499.747000000003,timeout,e.jpg,,,169403.30000001192,169402.645,168903.635,168904.10000002384,168919.531,169419.278,
トライアル,flow.Sequence,11_13,2023-01-16T05:43:43.039Z,,,b,,,315,2899.6440000000002,completion,e.jpg,,,169403.5,169402.645,166486.38,166487.40000003576,166503.001,169419.278,
空白時間1 (0.5秒),canvas.Screen,11_14_0,2023-01-16T05:43:43.538Z,,,d,,,0,499.997000000003,timeout,eR.jpg,,,169903,169902.567,169402.645,169403.70000004768,169419.278,169919.275,
注視(1秒),canvas.Screen,11_14_1,2023-01-16T05:43:44.538Z,,,d,,,0,999.8390000000072,timeout,eR.jpg,,,170902.90000003576,170902.487,169902.567,169903.10000002384,169919.275,170919.114,
空白時間2 (0.5秒),canvas.Screen,11_14_2,2023-01-16T05:43:45.040Z,,,d,,,0,499.8770000000077,timeout,eR.jpg,,,171403.5,171402.763,170902.487,170903,170919.114,171418.991,
刺激提示,canvas.Screen,11_14_3,2023-01-16T05:43:45.448Z,,,d,true,d,0,391.6090000238328,response,eR.jpg,d,keypress(j),171811.70000004768,171810.60000002384,171402.763,171403.60000002384,171418.991,171818.958,
フィードバック(0.5秒),canvas.Screen,11_14_4,2023-01-16T05:43:45.940Z,,,d,,,0,499.9459999999963,timeout,eR.jpg,,,172303,172302.312,171802.295,171812.90000003576,171818.958,172318.904,
トライアル,flow.Sequence,11_14,2023-01-16T05:43:45.940Z,,,d,,,0,2883.034000000014,completion,eR.jpg,,,172303.40000003576,172302.312,169402.645,169403.60000002384,169419.278,172318.904,
空白時間1 (0.5秒),canvas.Screen,11_15_0,2023-01-16T05:43:46.439Z,,,b,,,135,500.01600000000326,timeout,e.jpg,,,172802.80000001192,172802.259,172302.312,172303.5,172318.904,172818.92,
注視(1秒),canvas.Screen,11_15_1,2023-01-16T05:43:47.439Z,,,b,,,135,999.7419999999984,timeout,e.jpg,,,173802.70000004768,173802.091,172802.259,172802.90000003576,172818.92,173818.662,
空白時間2 (0.5秒),canvas.Screen,11_15_2,2023-01-16T05:43:47.939Z,,,b,,,135,500.0650000000023,timeout,e.jpg,,,174302.5,174301.978,173802.091,173802.90000003576,173818.662,174318.727,
刺激提示,canvas.Screen,11_15_3,2023-01-16T05:43:48.665Z,,,b,true,b,135,709.2729999999865,response,e.jpg,b,keypress(f),175028.80000001192,175028,174301.978,174302.80000001192,174318.727,175051.98,
フィードバック(0.5秒),canvas.Screen,11_15_4,2023-01-16T05:43:49.172Z,,,b,,,135,499.8499999999767,timeout,e.jpg,,,175535.70000004768,175535.208,175041.395,175043.90000003576,175051.98,175551.83,
トライアル,flow.Sequence,11_15,2023-01-16T05:43:49.172Z,,,b,,,135,3216.3040000000037,completion,e.jpg,,,175535.90000003576,175535.208,172302.312,172303.5,172318.904,175551.83,
タスクのセット,flow.Loop,11,2023-01-16T05:43:49.173Z,,,,,,,48010.394000000015,completion,,,,175536.10000002384,175535.208,127508.212,127509.10000002384,127524.814,175551.83,
空白時間1 (0.5秒),canvas.Screen,12_0_0,2023-01-16T05:43:49.672Z,,,b,,,90,499.9550000000163,timeout,e.jpg,,,176035.5,176035.068,175535.208,175536.20000004768,175551.83,176051.785,
注視(1秒),canvas.Screen,12_0_1,2023-01-16T05:43:50.672Z,,,b,,,90,999.8399999999965,timeout,e.jpg,,,177035.40000003576,177035.01,176035.068,176035.60000002384,176051.785,177051.625,
空白時間2 (0.5秒),canvas.Screen,12_0_2,2023-01-16T05:43:51.172Z,,,b,,,90,499.9320000000007,timeout,e.jpg,,,177535.30000001192,177534.921,177035.01,177035.60000002384,177051.625,177551.557,
刺激提示,canvas.Screen,12_0_3,2023-01-16T05:43:51.550Z,,,b,true,b,90,360.74300001192023,response,e.jpg,b,keypress(f),177913.70000004768,177912.30000001192,177534.921,177535.5,177551.557,177918.116,
フィードバック(0.5秒),canvas.Screen,12_0_4,2023-01-16T05:43:52.038Z,,,b,,,90,500.10699999998906,timeout,e.jpg,,,178401.90000003576,178401.447,177900.671,177914.80000001192,177918.116,178418.223,
トライアル,flow.Sequence,12_0,2023-01-16T05:43:52.039Z,,,b,,,90,2849.6169999999984,completion,e.jpg,,,178402.10000002384,178401.447,175535.208,175536.20000004768,175551.83,178418.223,
空白時間1 (0.5秒),canvas.Screen,12_1_0,2023-01-16T05:43:52.538Z,,,b,,,270,499.86699999999837,timeout,e.jpg,,,178901.90000003576,178901.441,178401.447,178402.20000004768,178418.223,178918.09,
注視(1秒),canvas.Screen,12_1_1,2023-01-16T05:43:53.540Z,,,b,,,270,999.7930000000051,timeout,e.jpg,,,179903.30000001192,179901.204,178901.441,178902,178918.09,179917.883,
空白時間2 (0.5秒),canvas.Screen,12_1_2,2023-01-16T05:43:54.038Z,,,b,,,270,499.91300000000047,timeout,e.jpg,,,180401.70000004768,180401.172,179901.204,179903.40000003576,179917.883,180417.796,
刺激提示,canvas.Screen,12_1_3,2023-01-16T05:43:54.436Z,,,b,false,b,270,380.50400001191883,response,e.jpg,d,keypress(j),180799.5,180798.30000001192,180401.172,180401.80000001192,180417.796,180818.131,
フィードバック(0.5秒),canvas.Screen,12_1_4,2023-01-16T05:43:54.939Z,,,b,,,270,499.7609999999986,timeout,e.jpg,,,181302.90000003576,181301.121,180801.206,180808.5,180818.131,181317.892,
トライアル,flow.Sequence,12_1,2023-01-16T05:43:54.940Z,,,b,,,270,2882.8980000000156,completion,e.jpg,,,181303.20000004768,181301.121,178401.447,178402.10000002384,178418.223,181317.892,
空白時間1 (0.5秒),canvas.Screen,12_2_0,2023-01-16T05:43:55.438Z,,,b,,,180,499.8969999999972,timeout,e.jpg,,,181801.60000002384,181801.044,181301.121,181303.40000003576,181317.892,181817.789,
注視(1秒),canvas.Screen,12_2_1,2023-01-16T05:43:56.439Z,,,b,,,180,999.6840000000084,timeout,e.jpg,,,182802.5,182800.834,181801.044,181801.70000004768,181817.789,182817.473,
空白時間2 (0.5秒),canvas.Screen,12_2_2,2023-01-16T05:43:56.938Z,,,b,,,180,500.00400000001537,timeout,e.jpg,,,183301.40000003576,183300.802,182800.834,182802.60000002384,182817.473,183317.477,
刺激提示,canvas.Screen,12_2_3,2023-01-16T05:43:57.558Z,,,b,true,b,180,602.7230000476702,response,e.jpg,b,keypress(f),183921.5,183920.20000004768,183300.802,183301.60000002384,183317.477,183934.143,
フィードバック(0.5秒),canvas.Screen,12_2_4,2023-01-16T05:43:58.056Z,,,b,,,180,499.8189999999886,timeout,e.jpg,,,184419,184417.374,183918.263,183923.90000003576,183934.143,184433.962,
トライアル,flow.Sequence,12_2,2023-01-16T05:43:58.056Z,,,b,,,180,3099.482000000018,completion,e.jpg,,,184419.30000001192,184417.374,181301.121,181303.30000001192,181317.892,184433.962,
空白時間1 (0.5秒),canvas.Screen,12_3_0,2023-01-16T05:43:58.554Z,,,b,,,135,500.08499999999185,timeout,e.jpg,,,184917.70000004768,184917.282,184417.374,184419.5,184433.962,184934.047,
注視(1秒),canvas.Screen,12_3_1,2023-01-16T05:43:59.555Z,,,b,,,135,999.689000000013,timeout,e.jpg,,,185918.40000003576,185917.187,184917.282,184917.80000001192,184934.047,185933.736,
空白時間2 (0.5秒),canvas.Screen,12_3_2,2023-01-16T05:44:00.054Z,,,b,,,135,499.91300000000047,timeout,e.jpg,,,186417.70000004768,186417.17,185917.187,185918.5,185933.736,186433.649,
刺激提示,canvas.Screen,12_3_3,2023-01-16T05:44:00.531Z,,,b,true,b,135,460.5510000476788,response,e.jpg,b,keypress(f),186894.90000003576,186894.20000004768,186417.17,186417.80000001192,186433.649,186917.042,
フィードバック(0.5秒),canvas.Screen,12_3_4,2023-01-16T05:44:01.037Z,,,b,,,135,499.8310000000056,timeout,e.jpg,,,187400.90000003576,187400.513,186900.353,186904.5,186917.042,187416.873,
トライアル,flow.Sequence,12_3,2023-01-16T05:44:01.038Z,,,b,,,135,2966.5510000000068,completion,e.jpg,,,187401.30000001192,187400.513,184417.374,184419.40000003576,184433.962,187416.873,
空白時間1 (0.5秒),canvas.Screen,12_4_0,2023-01-16T05:44:01.538Z,,,b,,,225,500.2970000000205,timeout,e.jpg,,,187901.20000004768,187900.346,187400.513,187401.40000003576,187416.873,187917.17,
注視(1秒),canvas.Screen,12_4_1,2023-01-16T05:44:02.538Z,,,b,,,225,999.5599999999977,timeout,e.jpg,,,188901.5,188900.114,187900.346,187901.60000002384,187917.17,188916.73,
空白時間2 (0.5秒),canvas.Screen,12_4_2,2023-01-16T05:44:03.037Z,,,b,,,225,500.237999999983,timeout,e.jpg,,,189400.90000003576,189400.047,188900.114,188901.80000001192,188916.73,189416.968,
刺激提示,canvas.Screen,12_4_3,2023-01-16T05:44:03.624Z,,,b,true,b,225,570.0320000000065,response,e.jpg,b,keypress(f),189987.90000003576,189987,189400.047,189401.10000002384,189416.968,189999.852,
フィードバック(0.5秒),canvas.Screen,12_4_4,2023-01-16T05:44:04.121Z,,,b,,,225,499.94999999998254,timeout,e.jpg,,,190484,190483.27,189983.403,189988.90000003576,189999.852,190499.802,
トライアル,flow.Sequence,12_4,2023-01-16T05:44:04.121Z,,,b,,,225,3066.396999999997,completion,e.jpg,,,190484.20000004768,190483.27,187400.513,187401.40000003576,187416.873,190499.802,
空白時間1 (0.5秒),canvas.Screen,12_5_0,2023-01-16T05:44:04.620Z,,,d,,,0,499.9409999999916,timeout,eR.jpg,,,190983.90000003576,190983.184,190483.27,190484.30000001192,190499.802,190999.743,
注視(1秒),canvas.Screen,12_5_1,2023-01-16T05:44:05.620Z,,,d,,,0,999.8490000000165,timeout,eR.jpg,,,191983.60000002384,191983.014,190983.184,190984.10000002384,190999.743,191999.592,
空白時間2 (0.5秒),canvas.Screen,12_5_2,2023-01-16T05:44:06.120Z,,,d,,,0,500.0210000000079,timeout,eR.jpg,,,192483.60000002384,192483.028,191983.014,191983.80000001192,191999.592,192499.613,
刺激提示,canvas.Screen,12_5_3,2023-01-16T05:44:06.515Z,,,d,true,d,0,378.1870000119088,response,eR.jpg,d,keypress(j),192878.40000003576,192877.80000001192,192483.028,192483.80000001192,192499.613,192899.555,
フィードバック(0.5秒),canvas.Screen,12_5_4,2023-01-16T05:44:07.020Z,,,d,,,0,500.0350000000035,timeout,eR.jpg,,,193383.20000004768,193382.755,192882.82,192887,192899.555,193399.59,
トライアル,flow.Sequence,12_5,2023-01-16T05:44:07.020Z,,,d,,,0,2882.9530000000086,completion,eR.jpg,,,193383.5,193382.755,190483.27,190484.30000001192,190499.802,193399.59,
空白時間1 (0.5秒),canvas.Screen,12_6_0,2023-01-16T05:44:07.520Z,,,d,,,135,499.8980000000156,timeout,eR.jpg,,,193883.40000003576,193882.759,193382.755,193383.60000002384,193399.59,193899.488,
注視(1秒),canvas.Screen,12_6_1,2023-01-16T05:44:08.520Z,,,d,,,135,999.7390000000014,timeout,eR.jpg,,,194883,194882.666,193882.759,193883.5,193899.488,194899.227,
空白時間2 (0.5秒),canvas.Screen,12_6_2,2023-01-16T05:44:09.020Z,,,d,,,135,499.94899999999325,timeout,eR.jpg,,,195383.20000004768,195382.51,194882.666,194883.10000002384,194899.227,195399.176,
刺激提示,canvas.Screen,12_6_3,2023-01-16T05:44:09.607Z,,,d,true,d,135,570.224000035756,response,eR.jpg,d,keypress(j),195970.20000004768,195969.40000003576,195382.51,195383.30000001192,195399.176,195982.405,
フィードバック(0.5秒),canvas.Screen,12_6_4,2023-01-16T05:44:10.103Z,,,d,,,135,499.9200000000128,timeout,eR.jpg,,,196466.5,196465.718,195965.909,195971.70000004768,195982.405,196482.325,
トライアル,flow.Sequence,12_6,2023-01-16T05:44:10.103Z,,,d,,,135,3066.127999999997,completion,eR.jpg,,,196466.60000002384,196465.718,193382.755,193383.5,193399.59,196482.325,
空白時間1 (0.5秒),canvas.Screen,12_7_0,2023-01-16T05:44:10.603Z,,,d,,,45,500.0929999999935,timeout,eR.jpg,,,196966.40000003576,196965.765,196465.718,196466.70000004768,196482.325,196982.418,
注視(1秒),canvas.Screen,12_7_1,2023-01-16T05:44:11.603Z,,,d,,,45,999.8580000000075,timeout,eR.jpg,,,197966,197965.501,196965.765,196966.5,196982.418,197982.276,
空白時間2 (0.5秒),canvas.Screen,12_7_2,2023-01-16T05:44:12.103Z,,,d,,,45,499.9409999999916,timeout,eR.jpg,,,198466,198465.446,197965.501,197966.10000002384,197982.276,198482.217,
刺激提示,canvas.Screen,12_7_3,2023-01-16T05:44:12.557Z,,,d,true,d,45,436.58300001191674,response,eR.jpg,d,keypress(j),198920.10000002384,198918.80000001192,198465.446,198466.20000004768,198482.217,198948.671,
フィードバック(0.5秒),canvas.Screen,12_7_4,2023-01-16T05:44:13.069Z,,,d,,,45,499.97000000000116,timeout,eR.jpg,,,199433,199432.211,198930,198941.60000002384,198948.671,199448.641,
トライアル,flow.Sequence,12_7,2023-01-16T05:44:13.070Z,,,d,,,45,2949.8859999999986,completion,eR.jpg,,,199433.30000001192,199432.211,196465.718,196466.70000004768,196482.325,199448.641,
空白時間1 (0.5秒),canvas.Screen,12_8_0,2023-01-16T05:44:13.570Z,,,b,,,45,500.00599999999395,timeout,e.jpg,,,199933.30000001192,199932.183,199432.211,199433.5,199448.641,199948.647,
注視(1秒),canvas.Screen,12_8_1,2023-01-16T05:44:14.569Z,,,b,,,45,999.8159999999916,timeout,e.jpg,,,200932.30000001192,200931.826,199932.183,199933.60000002384,199948.647,200948.463,
空白時間2 (0.5秒),canvas.Screen,12_8_2,2023-01-16T05:44:15.069Z,,,b,,,45,499.9210000000021,timeout,e.jpg,,,201432.40000003576,201431.796,200931.826,200932.40000003576,200948.463,201448.384,
刺激提示,canvas.Screen,12_8_3,2023-01-16T05:44:15.460Z,,,b,true,b,45,373.3160000476928,response,e.jpg,b,keypress(f),201823.80000001192,201821.70000004768,201431.796,201432.60000002384,201448.384,201831.661,
フィードバック(0.5秒),canvas.Screen,12_8_4,2023-01-16T05:44:15.952Z,,,b,,,45,499.94700000001467,timeout,e.jpg,,,202315.80000001192,202314.972,201815.519,201825.70000004768,201831.661,202331.608,
トライアル,flow.Sequence,12_8,2023-01-16T05:44:15.953Z,,,b,,,45,2866.3310000000056,completion,e.jpg,,,202316.10000002384,202314.972,199432.211,199433.40000003576,199448.641,202331.608,
空白時間1 (0.5秒),canvas.Screen,12_9_0,2023-01-16T05:44:16.452Z,,,d,,,90,499.9070000000065,timeout,eR.jpg,,,202815.60000002384,202814.945,202314.972,202316.40000003576,202331.608,202831.515,
注視(1秒),canvas.Screen,12_9_1,2023-01-16T05:44:17.455Z,,,d,,,90,999.9089999999851,timeout,eR.jpg,,,203818.10000002384,203814.844,202814.945,202815.70000004768,202831.515,203831.424,
空白時間2 (0.5秒),canvas.Screen,12_9_2,2023-01-16T05:44:17.952Z,,,d,,,90,499.8869999999879,timeout,eR.jpg,,,204315.60000002384,204314.687,203814.844,203818.30000001192,203831.424,204331.311,
刺激提示,canvas.Screen,12_9_3,2023-01-16T05:44:18.379Z,,,d,true,d,90,409.98900001193397,response,eR.jpg,d,keypress(j),204742.80000001192,204741.30000001192,204314.687,204315.80000001192,204331.311,204764.712,
フィードバック(0.5秒),canvas.Screen,12_9_4,2023-01-16T05:44:18.885Z,,,d,,,90,499.83499999999185,timeout,eR.jpg,,,205248.90000003576,205248.013,204748.303,204762,204764.712,205264.547,
トライアル,flow.Sequence,12_9,2023-01-16T05:44:18.886Z,,,d,,,90,2916.404999999999,completion,eR.jpg,,,205249.20000004768,205248.013,202314.972,202316.30000001192,202331.608,205264.547,
空白時間1 (0.5秒),canvas.Screen,12_10_0,2023-01-16T05:44:19.386Z,,,d,,,270,499.9539999999979,timeout,eR.jpg,,,205749,205748.037,205248.013,205249.30000001192,205264.547,205764.501,
注視(1秒),canvas.Screen,12_10_1,2023-01-16T05:44:20.385Z,,,d,,,270,999.8830000000016,timeout,eR.jpg,,,206748.90000003576,206747.804,205748.037,205749.30000001192,205764.501,206764.384,
空白時間2 (0.5秒),canvas.Screen,12_10_2,2023-01-16T05:44:20.885Z,,,d,,,270,499.9440000000177,timeout,eR.jpg,,,207248.10000002384,207247.587,206747.804,206749,206764.384,207264.328,
刺激提示,canvas.Screen,12_10_3,2023-01-16T05:44:21.483Z,,,d,true,d,270,581.2720000238332,response,eR.jpg,d,keypress(j),207846.40000003576,207845.60000002384,207247.587,207248.30000001192,207264.328,207864.152,
フィードバック(0.5秒),canvas.Screen,12_10_4,2023-01-16T05:44:21.985Z,,,d,,,270,500.1130000000121,timeout,eR.jpg,,,208348.40000003576,208347.56,207847.626,207847.90000003576,207864.152,208364.265,
トライアル,flow.Sequence,12_10,2023-01-16T05:44:21.985Z,,,d,,,270,3083.0130000000063,completion,eR.jpg,,,208349,208347.56,205248.013,205249.30000001192,205264.547,208364.265,
空白時間1 (0.5秒),canvas.Screen,12_11_0,2023-01-16T05:44:22.487Z,,,d,,,315,499.76599999997416,timeout,eR.jpg,,,208850,208847.461,208347.56,208349.10000002384,208364.265,208864.031,
注視(1秒),canvas.Screen,12_11_1,2023-01-16T05:44:23.485Z,,,d,,,315,1000.0170000000217,timeout,eR.jpg,,,209848.20000004768,209847.458,208847.461,208850.30000001192,208864.031,209864.048,
空白時間2 (0.5秒),canvas.Screen,12_11_2,2023-01-16T05:44:23.985Z,,,d,,,315,499.8159999999916,timeout,eR.jpg,,,210348.30000001192,210347.381,209847.458,209848.30000001192,209864.048,210363.864,
刺激提示,canvas.Screen,12_11_3,2023-01-16T05:44:24.485Z,,,d,true,d,315,483.93600001191953,response,eR.jpg,d,keypress(j),210848.5,210847.80000001192,210347.381,210348.5,210363.864,210863.928,
フィードバック(0.5秒),canvas.Screen,12_11_4,2023-01-16T05:44:24.984Z,,,d,,,315,499.7849999999744,timeout,eR.jpg,,,211347.90000003576,211347.157,210847.444,210859.30000001192,210863.928,211363.713,
トライアル,flow.Sequence,12_11,2023-01-16T05:44:24.985Z,,,d,,,315,2982.8919999999925,completion,eR.jpg,,,211348.20000004768,211347.157,208347.56,208349.10000002384,208364.265,211363.713,
空白時間1 (0.5秒),canvas.Screen,12_12_0,2023-01-16T05:44:25.484Z,,,d,,,180,500,timeout,eR.jpg,,,211847.40000003576,211847.011,211347.157,211348.40000003576,211363.713,211863.713,
注視(1秒),canvas.Screen,12_12_1,2023-01-16T05:44:26.484Z,,,d,,,180,999.9250000000175,timeout,eR.jpg,,,212847.40000003576,212846.858,211847.011,211847.60000002384,211863.713,212863.638,
空白時間2 (0.5秒),canvas.Screen,12_12_2,2023-01-16T05:44:26.984Z,,,d,,,180,499.84500000000116,timeout,eR.jpg,,,213347.60000002384,213346.867,212846.858,212847.40000003576,212863.638,213363.483,
刺激提示,canvas.Screen,12_12_3,2023-01-16T05:44:27.826Z,,,d,true,d,180,825.3170000119135,response,eR.jpg,d,keypress(j),214189.70000004768,214188.80000001192,213346.867,213347.90000003576,213363.483,214196.655,
フィードバック(0.5秒),canvas.Screen,12_12_4,2023-01-16T05:44:28.317Z,,,d,,,180,500.0240000000049,timeout,eR.jpg,,,214680.60000002384,214680.047,214180.171,214191.70000004768,214196.655,214696.679,
トライアル,flow.Sequence,12_12,2023-01-16T05:44:28.317Z,,,d,,,180,3316.3340000000026,completion,eR.jpg,,,214680.70000004768,214680.047,211347.157,211348.30000001192,211363.713,214696.679,
空白時間1 (0.5秒),canvas.Screen,12_13_0,2023-01-16T05:44:28.817Z,,,b,,,315,500.0439999999944,timeout,e.jpg,,,215180.80000001192,215179.992,214680.047,214680.80000001192,214696.679,215196.723,
注視(1秒),canvas.Screen,12_13_1,2023-01-16T05:44:29.817Z,,,b,,,315,999.8010000000068,timeout,e.jpg,,,216180.30000001192,216179.82,215179.992,215181,215196.723,216196.524,
空白時間2 (0.5秒),canvas.Screen,12_13_2,2023-01-16T05:44:30.317Z,,,b,,,315,499.8209999999963,timeout,e.jpg,,,216680.40000003576,216679.813,216179.82,216180.40000003576,216196.524,216696.345,
刺激提示,canvas.Screen,12_13_3,2023-01-16T05:44:30.812Z,,,b,true,b,315,478.95500001191976,response,e.jpg,b,keypress(f),217175.80000001192,217175.30000001192,216679.813,216680.5,216696.345,217196.286,
フィードバック(0.5秒),canvas.Screen,12_13_4,2023-01-16T05:44:31.317Z,,,b,,,315,499.91700000001583,timeout,e.jpg,,,217680.10000002384,217679.561,217179.688,217186.20000004768,217196.286,217696.203,
トライアル,flow.Sequence,12_13,2023-01-16T05:44:31.317Z,,,b,,,315,2982.8819999999832,completion,e.jpg,,,217680.40000003576,217679.561,214680.047,214680.80000001192,214696.679,217696.203,
空白時間1 (0.5秒),canvas.Screen,12_14_0,2023-01-16T05:44:31.817Z,,,b,,,0,499.9560000000056,timeout,e.jpg,,,218180.30000001192,218179.619,217679.561,217680.5,217696.203,218196.159,
注視(1秒),canvas.Screen,12_14_1,2023-01-16T05:44:32.817Z,,,b,,,0,999.9249999999884,timeout,e.jpg,,,219180.20000004768,219179.383,218179.619,218180.5,218196.159,219196.084,
空白時間2 (0.5秒),canvas.Screen,12_14_2,2023-01-16T05:44:33.316Z,,,b,,,0,499.8530000000028,timeout,e.jpg,,,219679.90000003576,219679.297,219179.383,219180.40000003576,219196.084,219695.937,
刺激提示,canvas.Screen,12_14_3,2023-01-16T05:44:33.695Z,,,b,true,b,0,361.26300004767836,response,e.jpg,b,keypress(f),220058,220057.20000004768,219679.297,219680,219695.937,220062.534,
フィードバック(0.5秒),canvas.Screen,12_14_4,2023-01-16T05:44:34.183Z,,,b,,,0,499.93899999998393,timeout,e.jpg,,,220546.70000004768,220545.957,220046.259,220059.90000003576,220062.534,220562.473,
トライアル,flow.Sequence,12_14,2023-01-16T05:44:34.183Z,,,b,,,0,2849.7539999999863,completion,e.jpg,,,220546.80000001192,220545.957,217679.561,217680.40000003576,217696.203,220562.473,
空白時間1 (0.5秒),canvas.Screen,12_15_0,2023-01-16T05:44:34.683Z,,,d,,,225,499.98399999999674,timeout,eR.jpg,,,221046.90000003576,221045.927,220545.957,220546.80000001192,220562.473,221062.457,
注視(1秒),canvas.Screen,12_15_1,2023-01-16T05:44:35.683Z,,,d,,,225,999.8600000000151,timeout,eR.jpg,,,222046.5,222045.691,221045.927,221047,221062.457,222062.317,
空白時間2 (0.5秒),canvas.Screen,12_15_2,2023-01-16T05:44:36.183Z,,,d,,,225,499.90200000000186,timeout,eR.jpg,,,222546.60000002384,222545.713,222045.691,222046.60000002384,222062.317,222562.219,
刺激提示,canvas.Screen,12_15_3,2023-01-16T05:44:36.725Z,,,d,true,d,225,525.1810000357509,response,eR.jpg,d,keypress(j),223088.80000001192,223087.40000003576,222545.713,222546.80000001192,222562.219,223112.145,
フィードバック(0.5秒),canvas.Screen,12_15_4,2023-01-16T05:44:37.234Z,,,d,,,225,499.92399999999907,timeout,eR.jpg,,,223597.30000001192,223595.53,223095.667,223108.10000002384,223112.145,223612.069,
トライアル,flow.Sequence,12_15,2023-01-16T05:44:37.234Z,,,d,,,225,3033.0570000000007,completion,eR.jpg,,,223597.60000002384,223595.53,220545.957,220546.80000001192,220562.473,223612.069,
タスクのセット,flow.Loop,12,2023-01-16T05:44:37.234Z,,,,,,,48043.70000000001,completion,,,,223597.90000003576,223595.53,175535.208,175536.20000004768,175551.83,223612.069,
空白時間1 (0.5秒),canvas.Screen,13_0_0,2023-01-16T05:44:37.733Z,,,b,,,45,500.22400000001653,timeout,e.jpg,,,224096.70000004768,224095.396,223595.53,223598,223612.069,224112.293,
注視(1秒),canvas.Screen,13_0_1,2023-01-16T05:44:38.733Z,,,b,,,45,999.8059999999823,timeout,e.jpg,,,225096.30000001192,225095.414,224095.396,224097.20000004768,224112.293,225112.099,
空白時間2 (0.5秒),canvas.Screen,13_0_2,2023-01-16T05:44:39.234Z,,,b,,,45,499.9530000000086,timeout,e.jpg,,,225597,225595.188,225095.414,225096.5,225112.099,225612.052,
刺激提示,canvas.Screen,13_0_3,2023-01-16T05:44:39.599Z,,,b,true,b,45,349.7480000119249,response,e.jpg,b,keypress(f),225962.40000003576,225961.80000001192,225595.188,225597.20000004768,225612.052,225978.418,
フィードバック(0.5秒),canvas.Screen,13_0_4,2023-01-16T05:44:40.099Z,,,b,,,45,499.9429999999993,timeout,e.jpg,,,226462.5,226461.695,225961.789,225963.80000001192,225978.418,226478.361,
トライアル,flow.Sequence,13_0,2023-01-16T05:44:40.099Z,,,b,,,45,2849.6260000000184,completion,e.jpg,,,226462.60000002384,226461.695,223595.53,223597.90000003576,223612.069,226478.361,
空白時間1 (0.5秒),canvas.Screen,13_1_0,2023-01-16T05:44:40.599Z,,,b,,,90,499.97099999999045,timeout,e.jpg,,,226962.30000001192,226961.743,226461.695,226462.70000004768,226478.361,226978.332,
注視(1秒),canvas.Screen,13_1_1,2023-01-16T05:44:41.599Z,,,b,,,90,999.9670000000042,timeout,e.jpg,,,227962.90000003576,227961.509,226961.743,226962.5,226978.332,227978.299,
空白時間2 (0.5秒),canvas.Screen,13_1_2,2023-01-16T05:44:42.099Z,,,b,,,90,499.86900000000605,timeout,e.jpg,,,228462,228461.444,227961.509,227963.10000002384,227978.299,228478.168,
刺激提示,canvas.Screen,13_1_3,2023-01-16T05:44:42.516Z,,,b,true,b,90,400.0320000476786,response,e.jpg,b,keypress(f),228879.10000002384,228878.20000004768,228461.444,228462.20000004768,228478.168,228894.749,
フィードバック(0.5秒),canvas.Screen,13_1_4,2023-01-16T05:44:43.015Z,,,b,,,90,499.9109999999928,timeout,e.jpg,,,229378.60000002384,229378.062,228878.248,228889.90000003576,228894.749,229394.66,
トライアル,flow.Sequence,13_1,2023-01-16T05:44:43.015Z,,,b,,,90,2899.701000000001,completion,e.jpg,,,229378.90000003576,229378.062,226461.695,226462.70000004768,226478.361,229394.66,
空白時間1 (0.5秒),canvas.Screen,13_2_0,2023-01-16T05:44:43.515Z,,,b,,,0,500.112999999983,timeout,e.jpg,,,229878.30000001192,229877.969,229378.062,229379,229394.66,229894.773,
注視(1秒),canvas.Screen,13_2_1,2023-01-16T05:44:44.516Z,,,b,,,0,999.698000000004,timeout,e.jpg,,,230879.90000003576,230877.884,229877.969,229878.5,229894.773,230894.471,
空白時間2 (0.5秒),canvas.Screen,13_2_2,2023-01-16T05:44:45.014Z,,,b,,,0,499.99199999999837,timeout,e.jpg,,,231378.20000004768,231377.795,230877.884,230880.10000002384,230894.471,231394.463,
刺激提示,canvas.Screen,13_2_3,2023-01-16T05:44:45.442Z,,,b,true,b,0,409.63700002385303,response,e.jpg,b,keypress(f),231806,231804.10000002384,231377.795,231378.30000001192,231394.463,231811.023,
フィードバック(0.5秒),canvas.Screen,13_2_4,2023-01-16T05:44:45.933Z,,,b,,,0,499.97100000001956,timeout,e.jpg,,,232296.90000003576,232294.371,231794.576,231807,231811.023,232310.994,
トライアル,flow.Sequence,13_2,2023-01-16T05:44:45.933Z,,,b,,,0,2899.7110000000102,completion,e.jpg,,,232297.10000002384,232294.371,229378.062,229378.90000003576,229394.66,232310.994,
空白時間1 (0.5秒),canvas.Screen,13_3_0,2023-01-16T05:44:46.432Z,,,d,,,270,500.1049999999814,timeout,eR.jpg,,,232796,232794.307,232294.371,232297.30000001192,232310.994,232811.099,
注視(1秒),canvas.Screen,13_3_1,2023-01-16T05:44:47.431Z,,,d,,,270,999.7400000000198,timeout,eR.jpg,,,233794.80000001192,233794.18,232794.307,232796.10000002384,232811.099,233810.839,
空白時間2 (0.5秒),canvas.Screen,13_3_2,2023-01-16T05:44:47.931Z,,,d,,,270,499.85799999997835,timeout,eR.jpg,,,234294.60000002384,234294.158,233794.18,233795,233810.839,234310.697,
刺激提示,canvas.Screen,13_3_3,2023-01-16T05:44:48.389Z,,,d,true,d,270,441.00300004769815,response,eR.jpg,d,keypress(j),234752.5,234751.70000004768,234294.158,234294.80000001192,234310.697,234777.36,
フィードバック(0.5秒),canvas.Screen,13_3_4,2023-01-16T05:44:48.898Z,,,d,,,270,500.0360000000219,timeout,eR.jpg,,,235261.90000003576,235260.671,234760.691,234763.10000002384,234777.36,235277.396,
トライアル,flow.Sequence,13_3,2023-01-16T05:44:48.899Z,,,d,,,270,2949.676999999996,completion,eR.jpg,,,235262.30000001192,235260.671,232294.371,232297.30000001192,232310.994,235277.396,
空白時間1 (0.5秒),canvas.Screen,13_4_0,2023-01-16T05:44:49.397Z,,,b,,,180,499.7519999999786,timeout,e.jpg,,,235761.20000004768,235760.489,235260.671,235262.5,235277.396,235777.148,
注視(1秒),canvas.Screen,13_4_1,2023-01-16T05:44:50.398Z,,,b,,,180,999.9280000000144,timeout,e.jpg,,,236761.80000001192,236760.36,235760.489,235761.40000003576,235777.148,236777.076,
空白時間2 (0.5秒),canvas.Screen,13_4_2,2023-01-16T05:44:50.897Z,,,b,,,180,499.95999999999185,timeout,e.jpg,,,237261.10000002384,237260.294,236760.36,236761.90000003576,236777.076,237277.036,
刺激提示,canvas.Screen,13_4_3,2023-01-16T05:44:51.594Z,,,b,true,b,180,680.0640000238491,response,e.jpg,b,keypress(f),237957.90000003576,237957.10000002384,237260.294,237261.40000003576,237277.036,237960.29,
フィードバック(0.5秒),canvas.Screen,13_4_4,2023-01-16T05:44:52.081Z,,,b,,,180,500.0019999999786,timeout,e.jpg,,,238444.5,238443.628,237943.761,237959,237960.29,238460.292,
トライアル,flow.Sequence,13_4,2023-01-16T05:44:52.081Z,,,b,,,180,3166.231999999989,completion,e.jpg,,,238444.90000003576,238443.628,235260.671,235262.5,235277.396,238460.292,
空白時間1 (0.5秒),canvas.Screen,13_5_0,2023-01-16T05:44:52.580Z,,,d,,,135,499.7420000000275,timeout,eR.jpg,,,238943.80000001192,238943.393,238443.628,238445,238460.292,238960.034,
注視(1秒),canvas.Screen,13_5_1,2023-01-16T05:44:53.580Z,,,d,,,135,999.8819999999832,timeout,eR.jpg,,,239944.10000002384,239943.368,238943.393,238944,238960.034,239959.916,
空白時間2 (0.5秒),canvas.Screen,13_5_2,2023-01-16T05:44:54.080Z,,,d,,,135,499.99300000001676,timeout,eR.jpg,,,240443.90000003576,240443.343,239943.368,239944.30000001192,239959.916,240459.909,
刺激提示,canvas.Screen,13_5_3,2023-01-16T05:44:54.558Z,,,d,true,d,135,460.7910000476695,response,eR.jpg,d,keypress(j),240921.40000003576,240920.70000004768,240443.343,240444.10000002384,240459.909,240943.127,
フィードバック(0.5秒),canvas.Screen,13_5_4,2023-01-16T05:44:55.065Z,,,d,,,135,499.93299999999,timeout,eR.jpg,,,241428.80000001192,241426.5,240926.525,240929.20000004768,240943.127,241443.06,
トライアル,flow.Sequence,13_5,2023-01-16T05:44:55.065Z,,,d,,,135,2966.2080000000133,completion,eR.jpg,,,241429,241426.5,238443.628,238444.90000003576,238460.292,241443.06,
空白時間1 (0.5秒),canvas.Screen,13_6_0,2023-01-16T05:44:55.563Z,,,b,,,315,499.9910000000091,timeout,e.jpg,,,241927.10000002384,241926.443,241426.5,241429.10000002384,241443.06,241943.051,
注視(1秒),canvas.Screen,13_6_1,2023-01-16T05:44:56.563Z,,,b,,,315,999.8580000000075,timeout,e.jpg,,,242926.80000001192,242926.334,241926.443,241927.40000003576,241943.051,242942.909,
空白時間2 (0.5秒),canvas.Screen,13_6_2,2023-01-16T05:44:57.063Z,,,b,,,315,499.8969999999972,timeout,e.jpg,,,243427,243426.252,242926.334,242927,242942.909,243442.806,
刺激提示,canvas.Screen,13_6_3,2023-01-16T05:44:57.431Z,,,b,true,b,315,350.9940000119095,response,e.jpg,b,keypress(f),243794.5,243793.80000001192,243426.252,243427.10000002384,243442.806,243809.409,
フィードバック(0.5秒),canvas.Screen,13_6_4,2023-01-16T05:44:57.930Z,,,b,,,315,499.9459999999963,timeout,e.jpg,,,244293.80000001192,244292.881,243792.823,243796.30000001192,243809.409,244309.355,
トライアル,flow.Sequence,13_6,2023-01-16T05:44:57.930Z,,,b,,,315,2849.8209999999963,completion,e.jpg,,,244294,244292.881,241426.5,241429.10000002384,241443.06,244309.355,
空白時間1 (0.5秒),canvas.Screen,13_7_0,2023-01-16T05:44:58.429Z,,,d,,,0,500.0009999999893,timeout,eR.jpg,,,244793.20000004768,244792.663,244292.881,244294.10000002384,244309.355,244809.356,
注視(1秒),canvas.Screen,13_7_1,2023-01-16T05:44:59.429Z,,,d,,,0,999.8530000000028,timeout,eR.jpg,,,245792.90000003576,245792.539,244792.663,244793.40000003576,244809.356,245809.209,
空白時間2 (0.5秒),canvas.Screen,13_7_2,2023-01-16T05:44:59.930Z,,,d,,,0,499.93899999998393,timeout,eR.jpg,,,246293.30000001192,246292.506,245792.539,245793,245809.209,246309.148,
刺激提示,canvas.Screen,13_7_3,2023-01-16T05:45:00.397Z,,,d,true,d,0,450.15200001193443,response,eR.jpg,d,keypress(j),246760.40000003576,246759.30000001192,246292.506,246293.5,246309.148,246775.686,
フィードバック(0.5秒),canvas.Screen,13_7_4,2023-01-16T05:45:00.896Z,,,d,,,0,500.05000000001746,timeout,eR.jpg,,,247260.10000002384,247259.119,246759.103,246774.20000004768,246775.686,247275.736,
トライアル,flow.Sequence,13_7,2023-01-16T05:45:00.897Z,,,d,,,0,2949.7639999999956,completion,eR.jpg,,,247260.40000003576,247259.119,244292.881,244294.10000002384,244309.355,247275.736,
空白時間1 (0.5秒),canvas.Screen,13_8_0,2023-01-16T05:45:01.396Z,,,b,,,270,499.8209999999963,timeout,e.jpg,,,247759.80000001192,247758.989,247259.119,247260.60000002384,247275.736,247775.557,
注視(1秒),canvas.Screen,13_8_1,2023-01-16T05:45:02.396Z,,,b,,,270,999.869000000006,timeout,e.jpg,,,248759.30000001192,248758.92,247758.989,247760.10000002384,247775.557,248775.426,
空白時間2 (0.5秒),canvas.Screen,13_8_2,2023-01-16T05:45:02.895Z,,,b,,,270,499.9059999999881,timeout,e.jpg,,,249259.20000004768,249258.791,248758.92,248759.30000001192,248775.426,249275.332,
刺激提示,canvas.Screen,13_8_3,2023-01-16T05:45:03.312Z,,,b,true,b,270,399.46800001192605,response,e.jpg,b,keypress(f),249675.30000001192,249674.80000001192,249258.791,249259.30000001192,249275.332,249692.119,
フィードバック(0.5秒),canvas.Screen,13_8_4,2023-01-16T05:45:03.812Z,,,b,,,270,499.8949999999895,timeout,e.jpg,,,250175.90000003576,250175.32,249675.34,249676.70000004768,249692.119,250192.014,
トライアル,flow.Sequence,13_8,2023-01-16T05:45:03.812Z,,,b,,,270,2899.5840000000026,completion,e.jpg,,,250176.10000002384,250175.32,247259.119,247260.5,247275.736,250192.014,
空白時間1 (0.5秒),canvas.Screen,13_9_0,2023-01-16T05:45:04.312Z,,,d,,,225,499.9310000000114,timeout,eR.jpg,,,250675.90000003576,250675.275,250175.32,250176.20000004768,250192.014,250691.945,
注視(1秒),canvas.Screen,13_9_1,2023-01-16T05:45:05.312Z,,,d,,,225,999.7770000000019,timeout,eR.jpg,,,251675.60000002384,251675.19,250675.275,250676,250691.945,251691.722,
空白時間2 (0.5秒),canvas.Screen,13_9_2,2023-01-16T05:45:05.812Z,,,d,,,225,499.9400000000023,timeout,eR.jpg,,,252175.60000002384,252175.035,251675.19,251675.70000004768,251691.722,252191.662,
刺激提示,canvas.Screen,13_9_3,2023-01-16T05:45:06.342Z,,,d,true,d,225,512.8379999999888,response,eR.jpg,d,keypress(j),252705.30000001192,252704.5,252175.035,252175.70000004768,252191.662,252724.882,
フィードバック(0.5秒),canvas.Screen,13_9_4,2023-01-16T05:45:06.845Z,,,d,,,225,499.9639999999781,timeout,eR.jpg,,,253208.80000001192,253208.27,252701.392,252714.10000002384,252724.882,253224.846,
トライアル,flow.Sequence,13_9,2023-01-16T05:45:06.845Z,,,d,,,225,3016.255999999994,completion,eR.jpg,,,253209,253208.27,250175.32,250176.20000004768,250192.014,253224.846,
空白時間1 (0.5秒),canvas.Screen,13_10_0,2023-01-16T05:45:07.345Z,,,d,,,180,499.9649999999965,timeout,eR.jpg,,,253708.70000004768,253708.168,253208.27,253209.10000002384,253224.846,253724.811,
注視(1秒),canvas.Screen,13_10_1,2023-01-16T05:45:08.345Z,,,d,,,180,999.9510000000009,timeout,eR.jpg,,,254708.80000001192,254708.104,253708.168,253708.90000003576,253724.811,254724.762,
空白時間2 (0.5秒),canvas.Screen,13_10_2,2023-01-16T05:45:08.845Z,,,d,,,180,499.8300000000163,timeout,eR.jpg,,,255208.80000001192,255208.119,254708.104,254709,254724.762,255224.592,
刺激提示,canvas.Screen,13_10_3,2023-01-16T05:45:09.438Z,,,d,true,d,180,576.5080000238377,response,eR.jpg,d,keypress(j),255802.10000002384,255801.10000002384,255208.119,255209,255224.592,255807.944,
フィードバック(0.5秒),canvas.Screen,13_10_4,2023-01-16T05:45:09.928Z,,,d,,,180,499.9100000000035,timeout,eR.jpg,,,256292,256291.178,255791.047,255803.80000001192,255807.944,256307.854,
トライアル,flow.Sequence,13_10,2023-01-16T05:45:09.929Z,,,d,,,180,3066.332000000024,completion,eR.jpg,,,256292.30000001192,256291.178,253208.27,253209.10000002384,253224.846,256307.854,
空白時間1 (0.5秒),canvas.Screen,13_11_0,2023-01-16T05:45:10.429Z,,,d,,,90,499.820000000007,timeout,eR.jpg,,,256793,256791.039,256291.178,256292.40000003576,256307.854,256807.674,
注視(1秒),canvas.Screen,13_11_1,2023-01-16T05:45:11.428Z,,,d,,,90,999.9070000000065,timeout,eR.jpg,,,257791.40000003576,257790.937,256791.039,256793.20000004768,256807.674,257807.581,
空白時間2 (0.5秒),canvas.Screen,13_11_2,2023-01-16T05:45:11.928Z,,,d,,,90,499.98300000000745,timeout,eR.jpg,,,258291.60000002384,258290.941,257790.937,257791.5,257807.581,258307.564,
刺激提示,canvas.Screen,13_11_3,2023-01-16T05:45:12.376Z,,,d,false,d,90,431.0360000238288,response,eR.jpg,b,keypress(f),258739.20000004768,258738.60000002384,258290.941,258291.90000003576,258307.564,258757.418,
フィードバック(0.5秒),canvas.Screen,13_11_4,2023-01-16T05:45:12.879Z,,,d,,,90,500.0659999999916,timeout,eR.jpg,,,259242.30000001192,259240.718,258740.844,258747.30000001192,258757.418,259257.484,
トライアル,flow.Sequence,13_11,2023-01-16T05:45:12.879Z,,,d,,,90,2932.8640000000014,completion,eR.jpg,,,259242.40000003576,259240.718,256291.178,256292.30000001192,256307.854,259257.484,
空白時間1 (0.5秒),canvas.Screen,13_12_0,2023-01-16T05:45:13.378Z,,,b,,,225,499.92600000000675,timeout,e.jpg,,,259741.70000004768,259740.637,259240.718,259242.5,259257.484,259757.41,
注視(1秒),canvas.Screen,13_12_1,2023-01-16T05:45:14.379Z,,,b,,,225,999.7790000000095,timeout,e.jpg,,,260742.70000004768,260740.566,259740.637,259741.90000003576,259757.41,260757.189,
空白時間2 (0.5秒),canvas.Screen,13_12_2,2023-01-16T05:45:14.877Z,,,b,,,225,499.94699999998556,timeout,e.jpg,,,261240.90000003576,261240.473,260740.566,260742.80000001192,260757.189,261257.136,
刺激提示,canvas.Screen,13_12_3,2023-01-16T05:45:15.463Z,,,b,true,b,225,568.7640000357642,response,e.jpg,b,keypress(f),261827.10000002384,261825.90000003576,261240.473,261241.10000002384,261257.136,261840.538,
フィードバック(0.5秒),canvas.Screen,13_12_4,2023-01-16T05:45:15.961Z,,,b,,,225,499.78999999997905,timeout,e.jpg,,,262324.60000002384,262323.782,261823.702,261828.5,261840.538,262340.328,
トライアル,flow.Sequence,13_12,2023-01-16T05:45:15.961Z,,,b,,,225,3066.29800000001,completion,e.jpg,,,262324.8000000119,262323.782,259240.718,259242.5,259257.484,262340.328,
空白時間1 (0.5秒),canvas.Screen,13_13_0,2023-01-16T05:45:16.461Z,,,d,,,45,499.90500000002794,timeout,eR.jpg,,,262824.60000002384,262823.739,262323.782,262325,262340.328,262840.233,
注視(1秒),canvas.Screen,13_13_1,2023-01-16T05:45:17.460Z,,,d,,,45,1000.0029999999679,timeout,eR.jpg,,,263824.10000002384,263823.462,262823.739,262824.8000000119,262840.233,263840.236,
空白時間2 (0.5秒),canvas.Screen,13_13_2,2023-01-16T05:45:17.960Z,,,d,,,45,499.899000000034,timeout,eR.jpg,,,264323.90000003576,264323.38,263823.462,263824.2000000477,263840.236,264340.135,
刺激提示,canvas.Screen,13_13_3,2023-01-16T05:45:18.395Z,,,d,true,d,45,417.7650000357535,response,eR.jpg,d,keypress(j),264758.90000003576,264757.90000003576,264323.38,264324,264340.135,264773.364,
フィードバック(0.5秒),canvas.Screen,13_13_4,2023-01-16T05:45:18.894Z,,,d,,,45,499.8960000000079,timeout,eR.jpg,,,265257.5,265256.757,264758.448,264768,264773.364,265273.26,
トライアル,flow.Sequence,13_13,2023-01-16T05:45:18.894Z,,,d,,,45,2916.4290000000037,completion,eR.jpg,,,265257.7000000477,265256.757,262323.782,262325,262340.328,265273.26,
空白時間1 (0.5秒),canvas.Screen,13_14_0,2023-01-16T05:45:19.394Z,,,b,,,135,500.0129999999772,timeout,e.jpg,,,265757.2000000477,265756.609,265256.757,265257.90000003576,265273.26,265773.273,
注視(1秒),canvas.Screen,13_14_1,2023-01-16T05:45:20.393Z,,,b,,,135,999.7609999999986,timeout,e.jpg,,,266757.10000002384,266756.469,265756.609,265757.40000003576,265773.273,266773.034,
空白時間2 (0.5秒),canvas.Screen,13_14_2,2023-01-16T05:45:20.893Z,,,b,,,135,499.9420000000391,timeout,e.jpg,,,267257.2000000477,267256.399,266756.469,266757.2000000477,266773.034,267272.976,
刺激提示,canvas.Screen,13_14_3,2023-01-16T05:45:21.419Z,,,b,true,b,135,508.4240000357386,response,e.jpg,b,keypress(f),267782.5,267781.40000003576,267256.399,267257.3000000119,267272.976,267789.562,
フィードバック(0.5秒),canvas.Screen,13_14_4,2023-01-16T05:45:21.910Z,,,b,,,135,500.02700000000186,timeout,e.jpg,,,268273.7000000477,268272.975,267779.422,267783.40000003576,267789.562,268289.589,
トライアル,flow.Sequence,13_14,2023-01-16T05:45:21.910Z,,,b,,,135,2999.7149999999674,completion,e.jpg,,,268274,268272.975,265256.757,265257.90000003576,265273.26,268289.589,
空白時間1 (0.5秒),canvas.Screen,13_15_0,2023-01-16T05:45:22.410Z,,,d,,,315,499.8960000000079,timeout,eR.jpg,,,268773.60000002384,268772.922,268272.975,268274.10000002384,268289.589,268789.485,
注視(1秒),canvas.Screen,13_15_1,2023-01-16T05:45:23.410Z,,,d,,,315,999.9650000000256,timeout,eR.jpg,,,269773.3000000119,269772.766,268772.922,268773.8000000119,268789.485,269789.45,
空白時間2 (0.5秒),canvas.Screen,13_15_2,2023-01-16T05:45:23.910Z,,,d,,,315,499.93900000001304,timeout,eR.jpg,,,270274,270272.707,269772.766,269773.3000000119,269789.45,270289.389,
刺激提示,canvas.Screen,13_15_3,2023-01-16T05:45:24.370Z,,,d,true,d,315,443.0110000357381,response,eR.jpg,d,keypress(j),270733.3000000119,270732.40000003576,270272.707,270274.10000002384,270289.389,270755.879,
フィードバック(0.5秒),canvas.Screen,13_15_4,2023-01-16T05:45:24.876Z,,,d,,,315,533.2779999999912,timeout,eR.jpg,,,271239.7000000477,271239.297,270739.341,270743.2000000477,270755.879,271289.157,
トライアル,flow.Sequence,13_15,2023-01-16T05:45:24.876Z,,,d,,,315,2949.7080000000424,completion,eR.jpg,,,271239.8000000119,271239.297,268272.975,268274,268289.589,271289.157,
タスクのセット,flow.Loop,13,2023-01-16T05:45:24.876Z,,,,,,,47627.22800000003,completion,,,,271240,271239.297,223595.53,223597.90000003576,223612.069,271289.157,
休憩,canvas.Screen,14,2023-01-16T05:46:24.902Z,,,,,,,60025.494000000006,timeout,,,,331265.5,331264.622,271239.297,271240,271289.157,331314.651,
休憩終了,html.Page,15,2023-01-16T05:46:27.961Z,,,,,,,3009.3489999999874,form submission,,,,334324.3000000119,334324,331264.622,331265.7000000477,331314.651,334330.92,
イントロ2,html.Page,16,2023-01-16T05:46:29.359Z,,,,,,,1391.2800000477,form submission,,,,335722.60000002384,335722.2000000477,334314.133,334324.60000002384,334330.92,335730.56,
イントロ3,html.Page,17,2023-01-16T05:46:30.109Z,,,,,,,741.9400000000023,form submission,,,,336473,336472.5,335715.678,335722.7000000477,335730.56,336497.205,
イントロ4,html.Page,18,2023-01-16T05:46:30.979Z,,,,,,,844.8950000238256,form submission,,,,337342.3000000119,337342.10000002384,336480.517,336473.40000003576,336497.205,337347.139,
イントロ5,html.Page,19,2023-01-16T05:46:32.323Z,,,,,,,1339.061000047659,form submission,,,,338686.5,338686.2000000477,337334.644,337342.40000003576,337347.139,338696.913,
できるだけ早く正確に,canvas.Screen,20,2023-01-16T05:46:33.317Z,,,,,,,999.8890000000247,timeout,,,,339680.40000003576,339680.048,338680.286,338686.7000000477,338696.913,339696.802,
空白時間1 (0.5秒),canvas.Screen,21_0_0,2023-01-16T05:46:33.818Z,,,d,,,225,499.90399999998044,timeout,2R.jpg,,,340181.60000002384,340179.987,339680.048,339680.7000000477,339696.802,340196.706,
注視(1秒),canvas.Screen,21_0_1,2023-01-16T05:46:34.817Z,,,d,,,225,999.8499999999767,timeout,2R.jpg,,,341180.7000000477,341179.942,340179.987,340181.8000000119,340196.706,341196.556,
空白時間2 (0.5秒),canvas.Screen,21_0_2,2023-01-16T05:46:35.319Z,,,d,,,225,500.06400000001304,timeout,2R.jpg,,,341682.40000003576,341679.815,341179.942,341181,341196.556,341696.62,
刺激提示(練習),canvas.Screen,21_0_3,2023-01-16T05:46:35.929Z,,,d,true,d,225,595.1800000119256,response,2R.jpg,d,keypress(j),342292.60000002384,342291.8000000119,341679.815,341682.5,341696.62,342296.423,
フィードバック(0.5秒),canvas.Screen,21_0_4,2023-01-16T05:46:36.418Z,,,d,,,225,499.87799999996787,timeout,2R.jpg,,,342781.3000000119,342779.802,342284.272,342302.2000000477,342296.423,342796.301,
トライアル,flow.Sequence,21_0,2023-01-16T05:46:36.418Z,,,d,,,225,3083,completion,2R.jpg,,,342781.5,342779.802,339680.048,339680.7000000477,339696.802,342796.301,
空白時間1 (0.5秒),canvas.Screen,21_1_0,2023-01-16T05:46:36.917Z,,,b,,,45,500.10700000001816,timeout,2.jpg,,,343280.40000003576,343279.83,342779.802,342781.60000002384,342796.301,343296.408,
注視(1秒),canvas.Screen,21_1_1,2023-01-16T05:46:37.917Z,,,b,,,45,999.7050000000163,timeout,2.jpg,,,344280.2000000477,344279.69,343279.83,343280.5,343296.408,344296.113,
空白時間2 (0.5秒),canvas.Screen,21_1_2,2023-01-16T05:46:38.418Z,,,b,,,45,500.1140000000014,timeout,2.jpg,,,344781.2000000477,344779.482,344279.69,344280.3000000119,344296.113,344796.227,
刺激提示(練習),canvas.Screen,21_1_3,2023-01-16T05:46:38.879Z,,,b,true,b,45,444.9730000476702,response,2.jpg,b,keypress(f),345242.3000000119,345241.2000000477,344779.482,344781.40000003576,344796.227,345245.975,
フィードバック(0.5秒),canvas.Screen,21_1_4,2023-01-16T05:46:39.366Z,,,b,,,45,500.094000000041,timeout,2.jpg,,,345729.7000000477,345729.285,345229.388,345243.60000002384,345245.975,345746.069,
トライアル,flow.Sequence,21_1,2023-01-16T05:46:39.366Z,,,b,,,45,2932.9839999999967,completion,2.jpg,,,345730,345729.285,342779.802,342781.60000002384,342796.301,345746.069,
空白時間1 (0.5秒),canvas.Screen,21_2_0,2023-01-16T05:46:39.866Z,,,b,,,180,500.0229999999865,timeout,2.jpg,,,346229.7000000477,346229.269,345729.285,345730.10000002384,345746.069,346246.092,
注視(1秒),canvas.Screen,21_2_1,2023-01-16T05:46:40.866Z,,,b,,,180,999.6959999999963,timeout,2.jpg,,,347230,347229.151,346229.269,346229.90000003576,346246.092,347245.788,
空白時間2 (0.5秒),canvas.Screen,21_2_2,2023-01-16T05:46:41.366Z,,,b,,,180,499.88400000002,timeout,2.jpg,,,347729.7000000477,347729.067,347229.151,347230.10000002384,347245.788,347745.672,
刺激提示(練習),canvas.Screen,21_2_3,2023-01-16T05:46:41.989Z,,,b,true,b,180,606.5280000476632,response,2.jpg,b,keypress(f),348353.10000002384,348352.2000000477,347729.067,347729.90000003576,347745.672,348379.152,
フィードバック(0.5秒),canvas.Screen,21_2_4,2023-01-16T05:46:42.499Z,,,b,,,180,499.8609999999753,timeout,2.jpg,,,348863,348862.205,348350.567,348362.7000000477,348379.152,348879.013,
トライアル,flow.Sequence,21_2,2023-01-16T05:46:42.500Z,,,b,,,180,3116.1359999999986,completion,2.jpg,,,348863.3000000119,348862.205,345729.285,345730,345746.069,348879.013,
空白時間1 (0.5秒),canvas.Screen,21_3_0,2023-01-16T05:46:42.999Z,,,d,,,90,499.9180000000051,timeout,2R.jpg,,,349362.60000002384,349362.161,348862.205,348863.40000003576,348879.013,349378.931,
注視(1秒),canvas.Screen,21_3_1,2023-01-16T05:46:44.000Z,,,d,,,90,999.704000000027,timeout,2R.jpg,,,350364.10000002384,350362.063,349362.161,349362.7000000477,349378.931,350378.635,
空白時間2 (0.5秒),canvas.Screen,21_3_2,2023-01-16T05:46:44.499Z,,,d,,,90,499.9899999999907,timeout,2R.jpg,,,350862.60000002384,350861.95,350362.063,350364.3000000119,350378.635,350878.625,
刺激提示(練習),canvas.Screen,21_3_3,2023-01-16T05:46:44.808Z,,,d,true,d,90,292.0750000476837,response,2R.jpg,d,keypress(j),351171.40000003576,351170.7000000477,350861.95,350862.7000000477,350878.625,351178.517,
フィードバック(0.5秒),canvas.Screen,21_3_4,2023-01-16T05:46:45.299Z,,,d,,,90,499.98399999999674,timeout,2R.jpg,,,351662.3000000119,351661.811,351161.99,351172.90000003576,351178.517,351678.501,
