sender,sender_type,sender_id,timestamp,meta,,answer,correct,correctResponse,deg,duration,ended_on,image,response,response_action,time_commit,time_end,time_render,time_run,time_show,time_switch,url
イントロ1,html.Page,0,2023-01-03T04:18:47.198Z,"{""labjs_version"":""20.2.4"",""labjs_build"":{""flavor"":""development"",""commit"":""f5b4a49f956347addd546a832a3327688c2c0fef""},""location"":""https://labjs.felixhenninger.com/api/labjs_preview/index.html"",""userAgent"":""Mozilla/5.0 (Windows NT 10.0; Win64; x64) AppleWebKit/537.36 (KHTML, like Gecko) Chrome/108.0.0.0 Safari/537.36 Edg/108.0.1462.54"",""platform"":""Win32"",""language"":""ja"",""locale"":""ja-JP"",""timeZone"":""Asia/Tokyo"",""timezoneOffset"":-540,""screen_width"":1920,""screen_height"":1080,""scroll_width"":1294,""scroll_height"":661,""window_innerWidth"":1294,""window_innerHeight"":709,""devicePixelRatio"":1}",,,,,,6174.9000000000115,form submission,,,,6898.799999999988,6898.700000000012,607.136,807.7000000000116,723.8,6823.671,{}
イントロ2,html.Page,1,2023-01-03T04:18:50.415Z,,,,,,,3291.8289999999997,form submission,,,,10115.700000000012,10115.5,6807.03,6899.100000000006,6823.671,10040.276,
イントロ3,html.Page,2,2023-01-03T04:19:01.446Z,,,,,,,11106.623999999994,form submission,,,,21147,21146.899999999994,10023.569,10115.700000000012,10040.276,21073.253,
イントロ4,html.Page,3,2023-01-03T04:19:02.075Z,,,,,,,701.947000000011,form submission,,,,21775.600000000006,21775.20000000001,21056.652,21147.100000000006,21073.253,21706.632,
イントロ5,html.Page,4,2023-01-03T04:19:03.512Z,,,,,,,1506.3679999999986,form submission,,,,23213.100000000006,23213,21689.954,21775.70000000001,21706.632,23139.836,
できるだけ早く正確に,canvas.Screen,5,2023-01-03T04:19:04.509Z,,,,,,,1000.1810000000005,timeout,,,,24209.29999999999,24123.292,23123.185,23213.100000000006,23139.836,24140.017,
空白時間1 (0.5秒),canvas.Screen,6_0_0,2023-01-03T04:19:05.008Z,,,b,,,270,499.8889999999992,timeout,e.jpg,,,24708.899999999994,24623.218,24123.292,24209.5,24140.017,24639.906,
注視(1秒),canvas.Screen,6_0_1,2023-01-03T04:19:06.008Z,,,b,,,270,999.893,timeout,e.jpg,,,25709,25623.311,24623.218,24709.100000000006,24639.906,25639.799,
空白時間2 (0.5秒),canvas.Screen,6_0_2,2023-01-03T04:19:06.508Z,,,b,,,270,500.1860000000015,timeout,e.jpg,,,26209,26123.107,25623.311,25709,25639.799,26139.985,
刺激提示(練習),canvas.Screen,6_0_3,2023-01-03T04:19:08.055Z,,,b,false,b,270,1614.8149999999878,response,e.jpg,d,keypress(j),27755.599999999977,27754.79999999999,26123.107,26209.099999999977,26139.985,27673.066,
フィードバック(0.5秒),canvas.Screen,6_0_4,2023-01-03T04:19:08.541Z,,,b,,,270,500.1100000000006,timeout,e.jpg,,,28241.900000000023,28156.499,27656.451,27756.099999999977,27673.066,28173.176,
トライアル,flow.Sequence,6_0,2023-01-03T04:19:08.542Z,,,b,,,270,4016.482,completion,e.jpg,,,28242.599999999977,28156.499,24123.292,24209.399999999994,24140.017,28173.176,
空白時間1 (0.5秒),canvas.Screen,6_1_0,2023-01-03T04:19:09.041Z,,,d,,,135,500.0420000000013,timeout,eR.jpg,,,28742,28656.429,28156.499,28242.599999999977,28173.176,28673.218,
注視(1秒),canvas.Screen,6_1_1,2023-01-03T04:19:10.041Z,,,d,,,135,999.8960000000006,timeout,eR.jpg,,,29741.900000000023,29656.448,28656.429,28742,28673.218,29673.114,
空白時間2 (0.5秒),canvas.Screen,6_1_2,2023-01-03T04:19:10.541Z,,,d,,,135,499.887999999999,timeout,eR.jpg,,,30241.79999999999,30156.337,29656.448,29742.099999999977,29673.114,30173.002,
刺激提示(練習),canvas.Screen,6_1_3,2023-01-03T04:19:11.284Z,,,d,false,d,135,810.5979999999763,response,eR.jpg,b,keypress(f),30984.29999999999,30983.599999999977,30156.337,30241.900000000023,30173.002,30923.036,
フィードバック(0.5秒),canvas.Screen,6_1_4,2023-01-03T04:19:11.791Z,,,d,,,135,500.02899999999863,timeout,eR.jpg,,,31492.099999999977,31406.584,30906.407,30992,30923.036,31423.065,
トライアル,flow.Sequence,6_1,2023-01-03T04:19:11.792Z,,,d,,,135,3233.4079999999994,completion,eR.jpg,,,31492.29999999999,31406.584,28156.499,28242.599999999977,28173.176,31423.065,
空白時間1 (0.5秒),canvas.Screen,6_2_0,2023-01-03T04:19:12.291Z,,,d,,,315,499.9070000000029,timeout,eR.jpg,,,31991.900000000023,31906.37,31406.584,31492.29999999999,31423.065,31922.972,
注視(1秒),canvas.Screen,6_2_1,2023-01-03T04:19:13.291Z,,,d,,,315,1000.2050000000017,timeout,eR.jpg,,,32991.79999999999,32906.314,31906.37,31991.900000000023,31922.972,32923.177,
空白時間2 (0.5秒),canvas.Screen,6_2_2,2023-01-03T04:19:13.791Z,,,d,,,315,499.7439999999988,timeout,eR.jpg,,,33491.79999999999,33406.296,32906.314,32991.90000000002,32923.177,33422.921,
刺激提示(練習),canvas.Screen,6_2_3,2023-01-03T04:19:16.138Z,,,d,false,d,315,2415.3789999999863,response,eR.jpg,b,keypress(f),35838.90000000002,35838.29999999999,33406.296,33491.90000000002,33422.921,35772.823,
フィードバック(0.5秒),canvas.Screen,6_2_4,2023-01-03T04:19:16.641Z,,,d,,,315,500.125,timeout,eR.jpg,,,36341.70000000001,36256.251,35756.203,35844.79999999999,35772.823,36272.948,
トライアル,flow.Sequence,6_2,2023-01-03T04:19:16.641Z,,,d,,,315,4833.185999999998,completion,eR.jpg,,,36341.90000000002,36256.251,31406.584,31492.29999999999,31423.065,36272.948,
空白時間1 (0.5秒),canvas.Screen,6_3_0,2023-01-03T04:19:17.141Z,,,b,,,180,500.0200000000041,timeout,e.jpg,,,36841.70000000001,36756.184,36256.251,36342,36272.948,36772.968,
注視(1秒),canvas.Screen,6_3_1,2023-01-03T04:19:18.141Z,,,b,,,180,999.9079999999958,timeout,e.jpg,,,37841.70000000001,37756.099,36756.184,36841.70000000001,36772.968,37772.876,
空白時間2 (0.5秒),canvas.Screen,6_3_2,2023-01-03T04:19:18.641Z,,,b,,,180,499.94100000000617,timeout,e.jpg,,,38341.70000000001,38256.151,37756.099,37841.79999999999,37772.876,38272.817,
刺激提示(練習),canvas.Screen,6_3_3,2023-01-03T04:19:19.825Z,,,b,false,b,180,1252.383000000009,response,e.jpg,d,keypress(j),39525.90000000002,39525.20000000001,38256.151,38341.79999999999,38272.817,39456.161,
フィードバック(0.5秒),canvas.Screen,6_3_4,2023-01-03T04:19:20.324Z,,,b,,,180,500.19400000000314,timeout,e.jpg,,,40024.90000000002,39939.468,39439.575,39533.09999999998,39456.161,39956.355,
トライアル,flow.Sequence,6_3,2023-01-03T04:19:20.325Z,,,b,,,180,3666.520000000004,completion,e.jpg,,,40025.09999999998,39939.468,36256.251,36342,36272.948,39956.355,
練習試行(e),flow.Loop,6,2023-01-03T04:19:20.325Z,,,,,,,15799.451000000001,completion,,,,40025.20000000001,39939.468,24123.292,24209.399999999994,24140.017,39956.355,
イントロ6,html.Page,7,2023-01-03T04:19:29.389Z,,,,,,,9133.244999999974,form submission,,,,49089.79999999999,49089.59999999998,39939.468,40025.29999999999,39956.355,49005.822,
できるだけ早く正確に,canvas.Screen,8,2023-01-03T04:19:30.376Z,,,,,,,1000.0650000000023,timeout,,,,50076.79999999999,49989.197,48989.224,49089.79999999999,49005.822,50005.887,
空白時間1 (0.5秒),canvas.Screen,9_0_0,2023-01-03T04:19:30.874Z,,,d,,,270,499.987000000001,timeout,eR.jpg,,,50574.90000000002,50489.302,49989.197,50076.79999999999,50005.887,50505.874,
注視(1秒),canvas.Screen,9_0_1,2023-01-03T04:19:31.874Z,,,d,,,270,1000.0119999999952,timeout,eR.jpg,,,51574.79999999999,51489.169,50489.302,50575,50505.874,51505.886,
空白時間2 (0.5秒),canvas.Screen,9_0_2,2023-01-03T04:19:32.374Z,,,d,,,270,499.87800000000425,timeout,eR.jpg,,,52074.59999999998,51989.066,51489.169,51574.90000000002,51505.886,52005.764,
刺激提示,canvas.Screen,9_0_3,2023-01-03T04:19:33.447Z,,,d,false,d,270,1141.9360000000088,response,eR.jpg,b,keypress(f),53148.20000000001,53147.70000000001,51989.066,52074.70000000001,52005.764,53072.36,
フィードバック(0.5秒),canvas.Screen,9_0_4,2023-01-03T04:19:33.940Z,,,d,,,270,499.96600000000035,timeout,eR.jpg,,,53641.40000000002,53555.66,53055.675,53153.59999999998,53072.36,53572.326,
トライアル,flow.Sequence,9_0,2023-01-03T04:19:33.941Z,,,d,,,270,3549.773000000001,completion,eR.jpg,,,53641.5,53555.66,49989.197,50076.79999999999,50005.887,53572.326,
空白時間1 (0.5秒),canvas.Screen,9_1_0,2023-01-03T04:19:34.440Z,,,b,,,270,500.0879999999961,timeout,e.jpg,,,54141.29999999999,54055.742,53555.66,53641.5,53572.326,54072.414,
注視(1秒),canvas.Screen,9_1_1,2023-01-03T04:19:35.440Z,,,b,,,270,1000.0020000000004,timeout,e.jpg,,,55141.09999999998,55055.662,54055.742,54141.40000000002,54072.414,55072.416,
空白時間2 (0.5秒),canvas.Screen,9_1_2,2023-01-03T04:19:35.940Z,,,b,,,270,499.9470000000001,timeout,e.jpg,,,55641.29999999999,55555.704,55055.662,55141.20000000001,55072.416,55572.363,
刺激提示,canvas.Screen,9_1_3,2023-01-03T04:19:42.501Z,,,b,false,b,270,6628.837000000014,response,e.jpg,d,keypress(j),62201.70000000001,62201.20000000001,55555.704,55641.29999999999,55572.363,62138.886,
フィードバック(0.5秒),canvas.Screen,9_1_4,2023-01-03T04:19:43.007Z,,,b,,,270,499.9429999999993,timeout,e.jpg,,,62707.59999999998,62622.153,62122.13,62207.79999999999,62138.886,62638.829,
トライアル,flow.Sequence,9_1,2023-01-03T04:19:43.007Z,,,b,,,270,9049.826999999997,completion,e.jpg,,,62707.70000000001,62622.153,53555.66,53641.5,53572.326,62638.829,
空白時間1 (0.5秒),canvas.Screen,9_2_0,2023-01-03T04:19:43.507Z,,,d,,,0,500.01000000000204,timeout,eR.jpg,,,63207.5,63122.112,62622.153,62707.79999999999,62638.829,63138.839,
注視(1秒),canvas.Screen,9_2_1,2023-01-03T04:19:44.506Z,,,d,,,0,999.9389999999985,timeout,eR.jpg,,,64207.40000000002,64122.052,63122.112,63207.59999999998,63138.839,64138.778,
空白時間2 (0.5秒),canvas.Screen,9_2_2,2023-01-03T04:19:45.007Z,,,d,,,0,500.0460000000021,timeout,eR.jpg,,,64707.59999999998,64622.118,64122.052,64207.5,64138.778,64638.824,
刺激提示,canvas.Screen,9_2_3,2023-01-03T04:19:46.766Z,,,d,true,d,0,1828.3760000000111,response,eR.jpg,d,keypress(j),66467.5,66467.20000000001,64622.118,64707.79999999999,64638.824,66405.326,
フィードバック(0.5秒),canvas.Screen,9_2_4,2023-01-03T04:19:47.273Z,,,d,,,0,500.1009999999951,timeout,eR.jpg,,,66974.20000000001,66888.734,66372.067,66472.90000000002,66405.326,66905.427,
トライアル,flow.Sequence,9_2,2023-01-03T04:19:47.273Z,,,d,,,0,4249.904999999999,completion,eR.jpg,,,66974.29999999999,66888.734,62622.153,62707.79999999999,62638.829,66905.427,
空白時間1 (0.5秒),canvas.Screen,9_3_0,2023-01-03T04:19:47.773Z,,,d,,,135,499.945000000007,timeout,eR.jpg,,,67474.40000000002,67388.789,66888.734,66974.40000000002,66905.427,67405.372,
注視(1秒),canvas.Screen,9_3_1,2023-01-03T04:19:48.773Z,,,d,,,135,999.8870000000024,timeout,eR.jpg,,,68474.09999999998,68388.699,67388.789,67474.5,67405.372,68405.259,
空白時間2 (0.5秒),canvas.Screen,9_3_2,2023-01-03T04:19:49.275Z,,,d,,,135,500.0219999999972,timeout,eR.jpg,,,68976.09999999998,68888.696,68388.699,68474.29999999999,68405.259,68905.281,
刺激提示,canvas.Screen,9_3_3,2023-01-03T04:19:50.422Z,,,d,false,d,135,1217.318999999974,response,eR.jpg,b,keypress(f),70123.29999999999,70122.59999999998,68888.696,68976.29999999999,68905.281,70055.709,
フィードバック(0.5秒),canvas.Screen,9_3_4,2023-01-03T04:19:50.923Z,,,d,,,135,499.5089999999909,timeout,eR.jpg,,,70623.90000000002,70538.552,70038.646,70123.70000000001,70055.709,70555.218,
トライアル,flow.Sequence,9_3,2023-01-03T04:19:50.923Z,,,d,,,135,3633.125,completion,eR.jpg,,,70624.09999999998,70538.552,66888.734,66974.40000000002,66905.427,70555.218,
空白時間1 (0.5秒),canvas.Screen,9_4_0,2023-01-03T04:19:51.423Z,,,d,,,315,500.0570000000007,timeout,eR.jpg,,,71124,71038.583,70538.552,70624.20000000001,70555.218,71055.275,
注視(1秒),canvas.Screen,9_4_1,2023-01-03T04:19:52.423Z,,,d,,,315,999.9140000000043,timeout,eR.jpg,,,72124.20000000001,72038.577,71038.583,71124.09999999998,71055.275,72055.189,
空白時間2 (0.5秒),canvas.Screen,9_4_2,2023-01-03T04:19:52.923Z,,,d,,,315,500.0639999999985,timeout,eR.jpg,,,72623.90000000002,72538.571,72038.577,72124.20000000001,72055.189,72555.253,
刺激提示,canvas.Screen,9_4_3,2023-01-03T04:19:54.169Z,,,d,true,d,315,1314.3469999999797,response,eR.jpg,d,keypress(j),73870,73869.59999999998,72538.571,72624.09999999998,72555.253,73805.115,
フィードバック(0.5秒),canvas.Screen,9_4_4,2023-01-03T04:19:54.673Z,,,d,,,315,500.09799999999814,timeout,eR.jpg,,,74374.09999999998,74288.532,73788.442,73877.90000000002,73805.115,74305.213,
トライアル,flow.Sequence,9_4,2023-01-03T04:19:54.673Z,,,d,,,315,3733.314000000013,completion,eR.jpg,,,74374.29999999999,74288.532,70538.552,70624.09999999998,70555.218,74305.213,
空白時間1 (0.5秒),canvas.Screen,9_5_0,2023-01-03T04:19:55.173Z,,,d,,,45,499.9060000000027,timeout,eR.jpg,,,74874.40000000002,74788.566,74288.532,74374.29999999999,74305.213,74805.119,
注視(1秒),canvas.Screen,9_5_1,2023-01-03T04:19:56.173Z,,,d,,,45,999.9629999999888,timeout,eR.jpg,,,75874,75788.473,74788.566,74874.59999999998,74805.119,75805.082,
空白時間2 (0.5秒),canvas.Screen,9_5_2,2023-01-03T04:19:56.673Z,,,d,,,45,500.09000000001106,timeout,eR.jpg,,,76373.90000000002,76288.484,75788.473,75874.09999999998,75805.082,76305.172,
刺激提示,canvas.Screen,9_5_3,2023-01-03T04:19:57.844Z,,,d,true,d,45,1239.0280000000057,response,eR.jpg,d,keypress(j),77544.70000000001,77544.20000000001,76288.484,76374,76305.172,77471.785,
フィードバック(0.5秒),canvas.Screen,9_5_4,2023-01-03T04:19:58.340Z,,,d,,,45,499.9789999999921,timeout,eR.jpg,,,78040.59999999998,77955.132,77455.043,77551.90000000002,77471.785,77971.764,
トライアル,flow.Sequence,9_5,2023-01-03T04:19:58.340Z,,,d,,,45,3649.9189999999944,completion,eR.jpg,,,78040.79999999999,77955.132,74288.532,74374.29999999999,74305.213,77971.764,
空白時間1 (0.5秒),canvas.Screen,9_6_0,2023-01-03T04:19:58.840Z,,,b,,,315,500.0480000000098,timeout,e.jpg,,,78540.79999999999,78455.113,77955.132,78040.90000000002,77971.764,78471.812,
注視(1秒),canvas.Screen,9_6_1,2023-01-03T04:19:59.840Z,,,b,,,315,999.8669999999984,timeout,e.jpg,,,79540.5,79455.057,78455.113,78541,78471.812,79471.679,
空白時間2 (0.5秒),canvas.Screen,9_6_2,2023-01-03T04:20:00.341Z,,,b,,,315,499.94199999999546,timeout,e.jpg,,,80042.40000000002,79954.942,79455.057,79540.70000000001,79471.679,79971.621,
刺激提示,canvas.Screen,9_6_3,2023-01-03T04:20:01.716Z,,,b,false,b,315,1445.279000000024,response,e.jpg,d,keypress(j),81417.5,81416.90000000002,79954.942,80042.5,79971.621,81354.987,
フィードバック(0.5秒),canvas.Screen,9_6_4,2023-01-03T04:20:02.223Z,,,b,,,315,499.93700000000536,timeout,e.jpg,,,81923.79999999999,81838.31,81338.317,81423.5,81354.987,81854.924,
トライアル,flow.Sequence,9_6,2023-01-03T04:20:02.223Z,,,b,,,315,3866.546000000002,completion,e.jpg,,,81923.90000000002,81838.31,77955.132,78040.79999999999,77971.764,81854.924,
空白時間1 (0.5秒),canvas.Screen,9_7_0,2023-01-03T04:20:02.723Z,,,b,,,90,500.04899999999907,timeout,e.jpg,,,82423.59999999998,82338.281,81838.31,81924,81854.924,82354.973,
注視(1秒),canvas.Screen,9_7_1,2023-01-03T04:20:03.723Z,,,b,,,90,999.968000000008,timeout,e.jpg,,,83423.90000000002,83338.184,82338.281,82423.79999999999,82354.973,83354.941,
空白時間2 (0.5秒),canvas.Screen,9_7_2,2023-01-03T04:20:04.223Z,,,b,,,90,500.0219999999972,timeout,e.jpg,,,83923.79999999999,83838.259,83338.184,83424,83354.941,83854.963,
刺激提示,canvas.Screen,9_7_3,2023-01-03T04:20:05.613Z,,,b,true,b,90,1458.43700000002,response,e.jpg,b,keypress(f),85313.90000000002,85313.40000000002,83838.259,83923.79999999999,83854.963,85238.197,
フィードバック(0.5秒),canvas.Screen,9_7_4,2023-01-03T04:20:06.106Z,,,b,,,90,500.07300000000396,timeout,e.jpg,,,85807.20000000001,85721.475,85221.477,85319.5,85238.197,85738.27,
トライアル,flow.Sequence,9_7,2023-01-03T04:20:06.106Z,,,b,,,90,3866.5510000000068,completion,e.jpg,,,85807.29999999999,85721.475,81838.31,81924,81854.924,85738.27,
空白時間1 (0.5秒),canvas.Screen,9_8_0,2023-01-03T04:20:06.606Z,,,b,,,225,499.9400000000023,timeout,e.jpg,,,86307,86221.514,85721.475,85807.40000000002,85738.27,86238.21,
注視(1秒),canvas.Screen,9_8_1,2023-01-03T04:20:07.606Z,,,b,,,225,999.900999999998,timeout,e.jpg,,,87306.90000000002,87221.506,86221.514,86307.09999999998,86238.21,87238.111,
空白時間2 (0.5秒),canvas.Screen,9_8_2,2023-01-03T04:20:08.106Z,,,b,,,225,499.9789999999921,timeout,e.jpg,,,87806.79999999999,87721.399,87221.506,87307,87238.111,87738.09,
刺激提示,canvas.Screen,9_8_3,2023-01-03T04:20:12.100Z,,,b,true,b,225,4062.209999999992,response,e.jpg,b,keypress(f),91800.79999999999,91800.29999999999,87721.399,87806.79999999999,87738.09,91738.047,
フィードバック(0.5秒),canvas.Screen,9_8_4,2023-01-03T04:20:12.606Z,,,b,,,225,499.8969999999972,timeout,e.jpg,,,92306.70000000001,92221.31,91721.37,91807,91738.047,92237.944,
トライアル,flow.Sequence,9_8,2023-01-03T04:20:12.606Z,,,b,,,225,6483.039999999994,completion,e.jpg,,,92306.90000000002,92221.31,85721.475,85807.40000000002,85738.27,92237.944,
空白時間1 (0.5秒),canvas.Screen,9_9_0,2023-01-03T04:20:13.106Z,,,d,,,180,500.0599999999977,timeout,eR.jpg,,,92806.79999999999,92721.264,92221.31,92307.09999999998,92237.944,92738.004,
注視(1秒),canvas.Screen,9_9_1,2023-01-03T04:20:14.106Z,,,d,,,180,999.9869999999937,timeout,eR.jpg,,,93807,93721.441,92721.264,92806.90000000002,92738.004,93737.991,
空白時間2 (0.5秒),canvas.Screen,9_9_2,2023-01-03T04:20:14.606Z,,,d,,,180,500.01600000000326,timeout,eR.jpg,,,94306.70000000001,94221.329,93721.441,93807.09999999998,93737.991,94238.007,
刺激提示,canvas.Screen,9_9_3,2023-01-03T04:20:16.350Z,,,d,false,d,180,1812.592999999979,response,eR.jpg,b,keypress(f),96051.09999999998,96050.59999999998,94221.329,94306.79999999999,94238.007,95987.965,
フィードバック(0.5秒),canvas.Screen,9_9_4,2023-01-03T04:20:16.856Z,,,d,,,180,499.90400000000955,timeout,eR.jpg,,,96556.70000000001,96471.233,95971.234,96059.70000000001,95987.965,96487.869,
トライアル,flow.Sequence,9_9,2023-01-03T04:20:16.856Z,,,d,,,180,4233.28899999999,completion,eR.jpg,,,96556.79999999999,96471.233,92221.31,92307,92237.944,96487.869,
空白時間1 (0.5秒),canvas.Screen,9_10_0,2023-01-03T04:20:17.356Z,,,b,,,135,500.13799999999173,timeout,e.jpg,,,97056.59999999998,96971.226,96471.233,96556.90000000002,96487.869,96988.007,
注視(1秒),canvas.Screen,9_10_1,2023-01-03T04:20:18.356Z,,,b,,,135,999.8920000000071,timeout,e.jpg,,,98056.90000000002,97971.224,96971.226,97056.70000000001,96988.007,97987.899,
空白時間2 (0.5秒),canvas.Screen,9_10_2,2023-01-03T04:20:18.856Z,,,b,,,135,499.93799999999464,timeout,e.jpg,,,98556.5,98471.119,97971.224,98056.90000000002,97987.899,98487.837,
刺激提示,canvas.Screen,9_10_3,2023-01-03T04:20:20.453Z,,,b,true,b,135,1665.5630000000237,response,e.jpg,b,keypress(f),100153.90000000002,100153.40000000002,98471.119,98556.70000000001,98487.837,100087.782,
フィードバック(0.5秒),canvas.Screen,9_10_4,2023-01-03T04:20:20.956Z,,,b,,,135,499.93099999999686,timeout,e.jpg,,,100656.5,100571.049,100071.019,100161.20000000001,100087.782,100587.713,
トライアル,flow.Sequence,9_10,2023-01-03T04:20:20.956Z,,,b,,,135,4083.179999999993,completion,e.jpg,,,100656.59999999998,100571.049,96471.233,96556.90000000002,96487.869,100587.713,
空白時間1 (0.5秒),canvas.Screen,9_11_0,2023-01-03T04:20:21.456Z,,,b,,,45,499.99099999999453,timeout,e.jpg,,,101156.59999999998,101071.06,100571.049,100656.90000000002,100587.713,101087.704,
注視(1秒),canvas.Screen,9_11_1,2023-01-03T04:20:22.456Z,,,b,,,45,1000.0979999999981,timeout,e.jpg,,,102156.90000000002,102071.122,101071.06,101156.70000000001,101087.704,102087.802,
空白時間2 (0.5秒),canvas.Screen,9_11_2,2023-01-03T04:20:22.956Z,,,b,,,45,499.88000000000466,timeout,e.jpg,,,102656.70000000001,102571.13,102071.122,102156.90000000002,102087.802,102587.682,
刺激提示,canvas.Screen,9_11_3,2023-01-03T04:20:23.623Z,,,b,true,b,45,736.1179999999877,response,e.jpg,b,keypress(f),103324.40000000002,103323.79999999999,102571.13,102656.70000000001,102587.682,103254.4,
フィードバック(0.5秒),canvas.Screen,9_11_4,2023-01-03T04:20:24.123Z,,,b,,,45,499.91500000000815,timeout,e.jpg,,,103823.29999999999,103737.666,103237.705,103335.90000000002,103254.4,103754.315,
トライアル,flow.Sequence,9_11,2023-01-03T04:20:24.123Z,,,b,,,45,3149.952999999994,completion,e.jpg,,,103823.5,103737.666,100571.049,100656.79999999999,100587.713,103754.315,
空白時間1 (0.5秒),canvas.Screen,9_12_0,2023-01-03T04:20:24.623Z,,,d,,,225,500.0819999999949,timeout,eR.jpg,,,104323.29999999999,104237.659,103737.666,103823.79999999999,103754.315,104254.397,
注視(1秒),canvas.Screen,9_12_1,2023-01-03T04:20:25.623Z,,,d,,,225,999.8739999999962,timeout,eR.jpg,,,105323.40000000002,105237.66,104237.659,104323.5,104254.397,105254.271,
空白時間2 (0.5秒),canvas.Screen,9_12_2,2023-01-03T04:20:26.122Z,,,d,,,225,499.98300000000745,timeout,eR.jpg,,,105823.09999999998,105737.627,105237.66,105323.59999999998,105254.271,105754.254,
刺激提示,canvas.Screen,9_12_3,2023-01-03T04:20:28.952Z,,,d,true,d,225,2897.446000000011,response,eR.jpg,d,keypress(j),108652.20000000001,108651.70000000001,105737.627,105823.20000000001,105754.254,108587.538,
フィードバック(0.5秒),canvas.Screen,9_12_4,2023-01-03T04:20:29.456Z,,,d,,,225,500,timeout,eR.jpg,,,109156.29999999999,109070.802,108570.901,108660.59999999998,108587.538,109087.538,
トライアル,flow.Sequence,9_12,2023-01-03T04:20:29.456Z,,,d,,,225,5316.486999999994,completion,eR.jpg,,,109156.5,109070.802,103737.666,103823.70000000001,103754.315,109087.538,
空白時間1 (0.5秒),canvas.Screen,9_13_0,2023-01-03T04:20:29.956Z,,,b,,,0,499.94400000000314,timeout,e.jpg,,,109656.20000000001,109570.806,109070.802,109156.5,109087.538,109587.482,
注視(1秒),canvas.Screen,9_13_1,2023-01-03T04:20:30.956Z,,,b,,,0,1000.0749999999971,timeout,e.jpg,,,110656.29999999999,110570.786,109570.806,109656.29999999999,109587.482,110587.557,
空白時間2 (0.5秒),canvas.Screen,9_13_2,2023-01-03T04:20:31.456Z,,,b,,,0,499.94899999999325,timeout,e.jpg,,,111156.20000000001,111070.83,110570.786,110656.5,110587.557,111087.506,
刺激提示,canvas.Screen,9_13_3,2023-01-03T04:20:32.467Z,,,b,true,b,0,1079.6940000000177,response,e.jpg,b,keypress(f),112168,112167.20000000001,111070.83,111156.40000000002,111087.506,112087.43,
フィードバック(0.5秒),canvas.Screen,9_13_4,2023-01-03T04:20:32.956Z,,,b,,,0,500.0850000000064,timeout,e.jpg,,,112656.70000000001,112570.823,112070.897,112169.09999999998,112087.43,112587.515,
トライアル,flow.Sequence,9_13,2023-01-03T04:20:32.956Z,,,b,,,0,3483.2850000000035,completion,e.jpg,,,112656.79999999999,112570.823,109070.802,109156.5,109087.538,112587.515,
空白時間1 (0.5秒),canvas.Screen,9_14_0,2023-01-03T04:20:33.456Z,,,d,,,90,499.93300000000454,timeout,eR.jpg,,,113156.20000000001,113070.805,112570.823,112656.90000000002,112587.515,113087.448,
注視(1秒),canvas.Screen,9_14_1,2023-01-03T04:20:34.456Z,,,d,,,90,1000.0409999999974,timeout,eR.jpg,,,114156.29999999999,114070.827,113070.805,113156.40000000002,113087.448,114087.489,
空白時間2 (0.5秒),canvas.Screen,9_14_2,2023-01-03T04:20:34.958Z,,,d,,,90,499.8329999999987,timeout,eR.jpg,,,114658.40000000002,114570.771,114070.827,114156.29999999999,114087.489,114587.322,
刺激提示,canvas.Screen,9_14_3,2023-01-03T04:20:36.520Z,,,d,false,d,90,1633.1779999999999,response,eR.jpg,b,keypress(f),116221,116220.5,114570.771,114658.5,114587.322,116153.973,
フィードバック(0.5秒),canvas.Screen,9_14_4,2023-01-03T04:20:37.022Z,,,d,,,90,500.0650000000023,timeout,eR.jpg,,,116722.90000000002,116637.352,116137.363,116226.5,116153.973,116654.038,
トライアル,flow.Sequence,9_14,2023-01-03T04:20:37.022Z,,,d,,,90,4049.8369999999995,completion,eR.jpg,,,116723.09999999998,116637.352,112570.823,112656.79999999999,112587.515,116654.038,
空白時間1 (0.5秒),canvas.Screen,9_15_0,2023-01-03T04:20:37.522Z,,,b,,,180,499.96600000000035,timeout,e.jpg,,,117222.90000000002,117137.335,116637.352,116723.09999999998,116654.038,117154.004,
注視(1秒),canvas.Screen,9_15_1,2023-01-03T04:20:38.522Z,,,b,,,180,999.9100000000035,timeout,e.jpg,,,118222.70000000001,118137.241,117137.335,117223,117154.004,118153.914,
空白時間2 (0.5秒),canvas.Screen,9_15_2,2023-01-03T04:20:39.022Z,,,b,,,180,500.36599999999453,timeout,e.jpg,,,118722.70000000001,118637.306,118137.241,118222.70000000001,118153.914,118654.28,
刺激提示,canvas.Screen,9_15_3,2023-01-03T04:20:42.641Z,,,b,true,b,180,3686.420000000013,response,e.jpg,b,keypress(f),122341.20000000001,122340.70000000001,118637.306,118722.70000000001,118654.28,122270.464,
フィードバック(0.5秒),canvas.Screen,9_15_4,2023-01-03T04:20:43.139Z,,,b,,,180,500.0679999999993,timeout,e.jpg,,,122839.29999999999,122753.847,122253.747,122348.09999999998,122270.464,122770.532,
トライアル,flow.Sequence,9_15,2023-01-03T04:20:43.139Z,,,b,,,180,6099.808999999994,completion,e.jpg,,,122839.5,122753.847,116637.352,116723.09999999998,116654.038,122770.532,
タスクのセット,flow.Loop,9,2023-01-03T04:20:43.139Z,,,,,,,72747.95999999999,completion,,,,122839.5,122753.847,49989.197,50076.79999999999,50005.887,122770.532,
空白時間1 (0.5秒),canvas.Screen,10_0_0,2023-01-03T04:20:43.639Z,,,d,,,270,499.9699999999866,timeout,eR.jpg,,,123339.40000000002,123253.798,122753.847,122839.70000000001,122770.532,123270.502,
注視(1秒),canvas.Screen,10_0_1,2023-01-03T04:20:44.639Z,,,d,,,270,999.8940000000002,timeout,eR.jpg,,,124339.29999999999,124253.848,123253.798,123339.5,123270.502,124270.396,
空白時間2 (0.5秒),canvas.Screen,10_0_2,2023-01-03T04:20:45.139Z,,,d,,,270,500.0149999999994,timeout,eR.jpg,,,124839.70000000001,124753.807,124253.848,124339.5,124270.396,124770.411,
刺激提示,canvas.Screen,10_0_3,2023-01-03T04:20:47.463Z,,,d,false,d,270,2392.688999999984,response,eR.jpg,b,keypress(f),127163.5,127163.09999999998,124753.807,124849.09999999998,124770.411,127087.052,
フィードバック(0.5秒),canvas.Screen,10_0_4,2023-01-03T04:20:47.955Z,,,d,,,270,499.98799999999756,timeout,eR.jpg,,,127655.79999999999,127570.32,127070.347,127169.59999999998,127087.052,127587.04,
トライアル,flow.Sequence,10_0,2023-01-03T04:20:47.955Z,,,d,,,270,4799.7880000000005,completion,eR.jpg,,,127656,127570.32,122753.847,122839.70000000001,122770.532,127587.04,
空白時間1 (0.5秒),canvas.Screen,10_1_0,2023-01-03T04:20:48.455Z,,,d,,,45,500.02700000000186,timeout,eR.jpg,,,128155.79999999999,128070.402,127570.32,127656.09999999998,127587.04,128087.067,
注視(1秒),canvas.Screen,10_1_1,2023-01-03T04:20:49.455Z,,,d,,,45,999.9689999999973,timeout,eR.jpg,,,129155.79999999999,129070.368,128070.402,128155.90000000002,128087.067,129087.036,
空白時間2 (0.5秒),canvas.Screen,10_1_2,2023-01-03T04:20:49.955Z,,,d,,,45,499.9990000000107,timeout,eR.jpg,,,129655.79999999999,129570.357,129070.368,129155.90000000002,129087.036,129587.035,
刺激提示,canvas.Screen,10_1_3,2023-01-03T04:20:52.157Z,,,d,true,d,45,2269.764999999985,response,eR.jpg,d,keypress(j),131857.40000000002,131856.8,129570.357,129655.90000000002,129587.035,131786.899,
フィードバック(0.5秒),canvas.Screen,10_1_4,2023-01-03T04:20:52.655Z,,,d,,,45,500.08699999999953,timeout,eR.jpg,,,132355.7,132270.295,131770.254,131866.09999999998,131786.899,132286.986,
トライアル,flow.Sequence,10_1,2023-01-03T04:20:52.655Z,,,d,,,45,4683.255000000019,completion,eR.jpg,,,132355.90000000002,132270.295,127570.32,127656.09999999998,127587.04,132286.986,
空白時間1 (0.5秒),canvas.Screen,10_2_0,2023-01-03T04:20:53.155Z,,,d,,,315,499.89100000000326,timeout,eR.jpg,,,132855.7,132770.24,132270.295,132356,132286.986,132786.877,
注視(1秒),canvas.Screen,10_2_1,2023-01-03T04:20:54.155Z,,,d,,,315,1000.0350000000035,timeout,eR.jpg,,,133855.7,133770.233,132770.24,132855.8,132786.877,133786.912,
空白時間2 (0.5秒),canvas.Screen,10_2_2,2023-01-03T04:20:54.655Z,,,d,,,315,500.0109999999986,timeout,eR.jpg,,,134355.7,134270.225,133770.233,133855.8,133786.912,134286.923,
刺激提示,canvas.Screen,10_2_3,2023-01-03T04:20:56.096Z,,,d,false,d,315,1509.2770000000019,response,eR.jpg,b,keypress(f),135796.8,135796.2,134270.225,134355.8,134286.923,135736.837,
フィードバック(0.5秒),canvas.Screen,10_2_4,2023-01-03T04:20:56.605Z,,,d,,,315,500.0309999999881,timeout,eR.jpg,,,136305.8,136220.175,135720.096,135805,135736.837,136236.868,
トライアル,flow.Sequence,10_2,2023-01-03T04:20:56.605Z,,,d,,,315,3933.188999999984,completion,eR.jpg,,,136305.90000000002,136220.175,132270.295,132355.90000000002,132286.986,136236.868,
空白時間1 (0.5秒),canvas.Screen,10_3_0,2023-01-03T04:20:57.105Z,,,b,,,180,499.97200000000885,timeout,e.jpg,,,136805.8,136720.116,136220.175,136306,136236.868,136736.84,
注視(1秒),canvas.Screen,10_3_1,2023-01-03T04:20:58.105Z,,,b,,,180,999.9850000000151,timeout,e.jpg,,,137805.59999999998,137720.131,136720.116,136805.90000000002,136736.84,137736.825,
空白時間2 (0.5秒),canvas.Screen,10_3_2,2023-01-03T04:20:58.605Z,,,b,,,180,499.96099999998114,timeout,e.jpg,,,138305.59999999998,138220.12,137720.131,137805.7,137736.825,138236.786,
刺激提示,canvas.Screen,10_3_3,2023-01-03T04:21:03.107Z,,,b,false,b,180,4570.813999999984,response,e.jpg,d,keypress(j),142808.09999999998,142807.59999999998,138220.12,138305.59999999998,138236.786,142736.596,
フィードバック(0.5秒),canvas.Screen,10_3_4,2023-01-03T04:21:03.605Z,,,b,,,180,499.97000000000116,timeout,e.jpg,,,143305.3,143219.862,142719.933,142813.8,142736.596,143236.566,
トライアル,flow.Sequence,10_3,2023-01-03T04:21:03.605Z,,,b,,,180,6982.994000000006,completion,e.jpg,,,143305.40000000002,143219.862,136220.175,136306,136236.868,143236.566,
空白時間1 (0.5秒),canvas.Screen,10_4_0,2023-01-03T04:21:04.105Z,,,b,,,270,500.0660000000207,timeout,e.jpg,,,143805.3,143719.872,143219.862,143305.5,143236.566,143736.632,
注視(1秒),canvas.Screen,10_4_1,2023-01-03T04:21:05.105Z,,,b,,,270,999.8999999999942,timeout,e.jpg,,,144805.90000000002,144719.885,143719.872,143805.40000000002,143736.632,144736.532,
空白時間2 (0.5秒),canvas.Screen,10_4_2,2023-01-03T04:21:05.605Z,,,b,,,270,500.0879999999888,timeout,e.jpg,,,145305.40000000002,145219.933,144719.885,144806,144736.532,145236.62,
刺激提示,canvas.Screen,10_4_3,2023-01-03T04:21:09.099Z,,,b,true,b,270,3562.780000000028,response,e.jpg,b,keypress(f),148800,148799.40000000002,145219.933,145305.5,145236.62,148736.674,
フィードバック(0.5秒),canvas.Screen,10_4_4,2023-01-03T04:21:09.605Z,,,b,,,270,499.8040000000037,timeout,e.jpg,,,149305.2,149219.787,148719.784,148806.8,148736.674,149236.478,
トライアル,flow.Sequence,10_4,2023-01-03T04:21:09.605Z,,,b,,,270,5983.22100000002,completion,e.jpg,,,149305.3,149219.787,143219.862,143305.5,143236.566,149236.478,
空白時間1 (0.5秒),canvas.Screen,10_5_0,2023-01-03T04:21:10.105Z,,,d,,,135,500.01600000000326,timeout,eR.jpg,,,149805.3,149719.798,149219.787,149305.40000000002,149236.478,149736.494,
注視(1秒),canvas.Screen,10_5_1,2023-01-03T04:21:11.105Z,,,d,,,135,999.9659999999858,timeout,eR.jpg,,,150805.2,150719.731,149719.798,149805.3,149736.494,150736.46,
空白時間2 (0.5秒),canvas.Screen,10_5_2,2023-01-03T04:21:11.604Z,,,d,,,135,499.9630000000179,timeout,eR.jpg,,,151305.2,151219.777,150719.731,150805.40000000002,150736.46,151236.423,
刺激提示,canvas.Screen,10_5_3,2023-01-03T04:21:16.035Z,,,d,false,d,135,4498.777000000002,response,eR.jpg,b,keypress(f),155735.59999999998,155735.2,151219.777,151305.2,151236.423,155669.712,
フィードバック(0.5秒),canvas.Screen,10_5_4,2023-01-03T04:21:16.538Z,,,d,,,135,499.82200000001467,timeout,eR.jpg,,,156238.3,156152.854,155652.909,155743.09999999998,155669.712,156169.534,
トライアル,flow.Sequence,10_5,2023-01-03T04:21:16.538Z,,,d,,,135,6916.375999999989,completion,eR.jpg,,,156238.40000000002,156152.854,149219.787,149305.40000000002,149236.478,156169.534,
空白時間1 (0.5秒),canvas.Screen,10_6_0,2023-01-03T04:21:17.038Z,,,b,,,45,500.1019999999844,timeout,e.jpg,,,156738.7,156652.891,156152.854,156238.5,156169.534,156669.636,
注視(1秒),canvas.Screen,10_6_1,2023-01-03T04:21:18.038Z,,,b,,,45,1000.0119999999879,timeout,e.jpg,,,157738.5,157652.891,156652.891,156738.90000000002,156669.636,157669.648,
空白時間2 (0.5秒),canvas.Screen,10_6_2,2023-01-03T04:21:18.538Z,,,b,,,45,499.90500000002794,timeout,e.jpg,,,158238.5,158152.882,157652.891,157738.59999999998,157669.648,158169.553,
刺激提示,canvas.Screen,10_6_3,2023-01-03T04:21:19.838Z,,,b,true,b,45,1368.246999999974,response,e.jpg,b,keypress(f),159538.40000000002,159537.8,158152.882,158238.59999999998,158169.553,159469.49,
フィードバック(0.5秒),canvas.Screen,10_6_4,2023-01-03T04:21:20.338Z,,,b,,,45,499.9560000000056,timeout,e.jpg,,,160038.2,159952.77,159452.868,159539.5,159469.49,159969.446,
トライアル,flow.Sequence,10_6,2023-01-03T04:21:20.338Z,,,b,,,45,3783.2359999999753,completion,e.jpg,,,160038.3,159952.77,156152.854,156238.5,156169.534,159969.446,
空白時間1 (0.5秒),canvas.Screen,10_7_0,2023-01-03T04:21:20.838Z,,,d,,,0,499.9649999999965,timeout,eR.jpg,,,160538.40000000002,160452.769,159952.77,160038.40000000002,159969.446,160469.411,
注視(1秒),canvas.Screen,10_7_1,2023-01-03T04:21:21.838Z,,,d,,,0,999.960000000021,timeout,eR.jpg,,,161538.09999999998,161452.724,160452.769,160538.7,160469.411,161469.371,
空白時間2 (0.5秒),canvas.Screen,10_7_2,2023-01-03T04:21:22.338Z,,,d,,,0,499.99199999999837,timeout,eR.jpg,,,162038.5,161952.703,161452.724,161538.2,161469.371,161969.363,
刺激提示,canvas.Screen,10_7_3,2023-01-03T04:21:25.564Z,,,d,true,d,0,3294.636999999988,response,eR.jpg,d,keypress(j),165264.59999999998,165264,161952.703,162038.5,161969.363,165202.695,
フィードバック(0.5秒),canvas.Screen,10_7_4,2023-01-03T04:21:26.071Z,,,d,,,0,499.8969999999972,timeout,eR.jpg,,,165771.40000000002,165685.917,165185.886,165272.3,165202.695,165702.592,
トライアル,flow.Sequence,10_7,2023-01-03T04:21:26.071Z,,,d,,,0,5716.47099999999,completion,eR.jpg,,,165771.40000000002,165685.917,159952.77,160038.40000000002,159969.446,165702.592,
空白時間1 (0.5秒),canvas.Screen,10_8_0,2023-01-03T04:21:26.571Z,,,b,,,225,500.0689999999886,timeout,e.jpg,,,166271.40000000002,166185.984,165685.917,165771.5,165702.592,166202.661,
注視(1秒),canvas.Screen,10_8_1,2023-01-03T04:21:27.571Z,,,b,,,225,999.9930000000168,timeout,e.jpg,,,167271.40000000002,167185.894,166185.984,166271.5,166202.661,167202.654,
空白時間2 (0.5秒),canvas.Screen,10_8_2,2023-01-03T04:21:28.071Z,,,b,,,225,500.1449999999895,timeout,e.jpg,,,167771.40000000002,167685.96,167185.894,167271.5,167202.654,167702.799,
刺激提示,canvas.Screen,10_8_3,2023-01-03T04:21:31.971Z,,,b,true,b,225,3968.0009999999893,response,e.jpg,b,keypress(f),171671.3,171670.8,167685.96,167771.5,167702.799,171602.544,
フィードバック(0.5秒),canvas.Screen,10_8_4,2023-01-03T04:21:32.471Z,,,b,,,225,499.99600000001374,timeout,e.jpg,,,172171.2,172085.776,171585.726,171679.40000000002,171602.544,172102.54,
トライアル,flow.Sequence,10_8,2023-01-03T04:21:32.471Z,,,b,,,225,6383.184000000008,completion,e.jpg,,,172171.40000000002,172085.776,165685.917,165771.5,165702.592,172102.54,
空白時間1 (0.5秒),canvas.Screen,10_9_0,2023-01-03T04:21:32.971Z,,,b,,,90,499.9639999999781,timeout,e.jpg,,,172671.2,172585.828,172085.776,172171.40000000002,172102.54,172602.504,
注視(1秒),canvas.Screen,10_9_1,2023-01-03T04:21:33.971Z,,,b,,,90,999.9040000000095,timeout,e.jpg,,,173671.3,173585.812,172585.828,172671.3,172602.504,173602.408,
空白時間2 (0.5秒),canvas.Screen,10_9_2,2023-01-03T04:21:34.470Z,,,b,,,90,499.95000000001164,timeout,e.jpg,,,174171.2,174085.744,173585.812,173671.3,173602.408,174102.358,
刺激提示,canvas.Screen,10_9_3,2023-01-03T04:21:37.723Z,,,b,true,b,90,3320.342000000004,response,e.jpg,b,keypress(f),177423.3,177422.7,174085.744,174171.3,174102.358,177352.309,
フィードバック(0.5秒),canvas.Screen,10_9_4,2023-01-03T04:21:38.220Z,,,b,,,90,499.9759999999951,timeout,e.jpg,,,177921.09999999998,177835.656,177335.612,177430.59999999998,177352.309,177852.285,
トライアル,flow.Sequence,10_9,2023-01-03T04:21:38.221Z,,,b,,,90,5733.11599999998,completion,e.jpg,,,177921.3,177835.656,172085.776,172171.40000000002,172102.54,177852.285,
空白時間1 (0.5秒),canvas.Screen,10_10_0,2023-01-03T04:21:38.720Z,,,d,,,90,500.04899999999907,timeout,eR.jpg,,,178421.09999999998,178335.675,177835.656,177921.3,177852.285,178352.334,
注視(1秒),canvas.Screen,10_10_1,2023-01-03T04:21:39.722Z,,,d,,,90,1000.0020000000077,timeout,eR.jpg,,,179422.3,179335.662,178335.675,178421.3,178352.334,179352.336,
空白時間2 (0.5秒),canvas.Screen,10_10_2,2023-01-03T04:21:40.220Z,,,d,,,90,499.99599999998463,timeout,eR.jpg,,,179921.2,179835.64,179335.662,179422.40000000002,179352.336,179852.332,
刺激提示,canvas.Screen,10_10_3,2023-01-03T04:21:41.828Z,,,d,true,d,90,1675.3680000000168,response,eR.jpg,d,keypress(j),181528.3,181527.7,179835.64,179921.3,179852.332,181470.215,
フィードバック(0.5秒),canvas.Screen,10_10_4,2023-01-03T04:21:42.337Z,,,d,,,90,498.74300000001676,timeout,eR.jpg,,,182037.7,181952.252,181435.601,181536.40000000002,181470.215,181968.958,
トライアル,flow.Sequence,10_10,2023-01-03T04:21:42.337Z,,,d,,,90,4099.967000000004,completion,eR.jpg,,,182037.90000000002,181952.252,177835.656,177921.3,177852.285,181968.958,
空白時間1 (0.5秒),canvas.Screen,10_11_0,2023-01-03T04:21:42.837Z,,,d,,,180,499.9569999999949,timeout,eR.jpg,,,182537.5,182452.148,181952.252,182038,181968.958,182468.915,
注視(1秒),canvas.Screen,10_11_1,2023-01-03T04:21:43.837Z,,,d,,,180,999.9799999999814,timeout,eR.jpg,,,183537.7,183452.126,182452.148,182537.7,182468.915,183468.895,
空白時間2 (0.5秒),canvas.Screen,10_11_2,2023-01-03T04:21:44.339Z,,,d,,,180,500.0350000000035,timeout,eR.jpg,,,184039.2,183952.235,183452.126,183537.8,183468.895,183968.93,
刺激提示,canvas.Screen,10_11_3,2023-01-03T04:21:47.219Z,,,d,true,d,180,2950.2700000000186,response,eR.jpg,d,keypress(j),186919.8,186919.2,183952.235,184039.3,183968.93,186852.055,
フィードバック(0.5秒),canvas.Screen,10_11_4,2023-01-03T04:21:47.720Z,,,d,,,180,499.99300000001676,timeout,eR.jpg,,,187421.09999999998,187335.4,186835.453,186927.8,186852.055,187352.048,
トライアル,flow.Sequence,10_11,2023-01-03T04:21:47.721Z,,,d,,,180,5366.441999999981,completion,eR.jpg,,,187421.3,187335.4,181952.252,182037.90000000002,181968.958,187352.048,
空白時間1 (0.5秒),canvas.Screen,10_12_0,2023-01-03T04:21:48.220Z,,,b,,,0,500.0589999999793,timeout,e.jpg,,,187921,187835.358,187335.4,187421.3,187352.048,187852.107,
注視(1秒),canvas.Screen,10_12_1,2023-01-03T04:21:49.220Z,,,b,,,0,999.9080000000249,timeout,e.jpg,,,188920.90000000002,188835.363,187835.358,187921.2,187852.107,188852.015,
空白時間2 (0.5秒),canvas.Screen,10_12_2,2023-01-03T04:21:49.720Z,,,b,,,0,500.0789999999979,timeout,e.jpg,,,189420.8,189335.388,188835.363,188921,188852.015,189352.094,
刺激提示,canvas.Screen,10_12_3,2023-01-03T04:21:50.788Z,,,b,true,b,0,1135.8060000000114,response,e.jpg,b,keypress(f),190488.3,190487.90000000002,189335.388,189420.90000000002,189352.094,190418.629,
フィードバック(0.5秒),canvas.Screen,10_12_4,2023-01-03T04:21:51.287Z,,,b,,,0,499.98099999999977,timeout,e.jpg,,,190987.5,190902.003,190402.003,190495.59999999998,190418.629,190918.61,
トライアル,flow.Sequence,10_12,2023-01-03T04:21:51.287Z,,,b,,,0,3549.954999999987,completion,e.jpg,,,190987.59999999998,190902.003,187335.4,187421.3,187352.048,190918.61,
空白時間1 (0.5秒),canvas.Screen,10_13_0,2023-01-03T04:21:51.787Z,,,d,,,225,499.98099999999977,timeout,eR.jpg,,,191487.5,191401.991,190902.003,190987.7,190918.61,191418.591,
注視(1秒),canvas.Screen,10_13_1,2023-01-03T04:21:52.787Z,,,d,,,225,1000.1030000000028,timeout,eR.jpg,,,192487.40000000002,192401.996,191401.991,191487.59999999998,191418.591,192418.694,
空白時間2 (0.5秒),canvas.Screen,10_13_2,2023-01-03T04:21:53.287Z,,,d,,,225,499.9400000000023,timeout,eR.jpg,,,192987.40000000002,192901.945,192401.996,192487.5,192418.694,192918.634,
刺激提示,canvas.Screen,10_13_3,2023-01-03T04:21:54.589Z,,,d,true,d,225,1370.0660000000207,response,eR.jpg,d,keypress(j),194289.3,194288.7,192901.945,192987.59999999998,192918.634,194218.524,
フィードバック(0.5秒),canvas.Screen,10_13_4,2023-01-03T04:21:55.087Z,,,d,,,225,499.9640000000072,timeout,eR.jpg,,,194787.3,194701.821,194201.829,194295.3,194218.524,194718.488,
トライアル,flow.Sequence,10_13,2023-01-03T04:21:55.087Z,,,d,,,225,3783.2110000000102,completion,eR.jpg,,,194787.5,194701.821,190902.003,190987.7,190918.61,194718.488,
空白時間1 (0.5秒),canvas.Screen,10_14_0,2023-01-03T04:21:55.587Z,,,b,,,315,499.9669999999751,timeout,e.jpg,,,195287.5,195201.889,194701.821,194787.59999999998,194718.488,195218.455,
注視(1秒),canvas.Screen,10_14_1,2023-01-03T04:21:56.587Z,,,b,,,315,1000.2740000000049,timeout,e.jpg,,,196287.3,196201.874,195201.889,195287.7,195218.455,196218.729,
空白時間2 (0.5秒),canvas.Screen,10_14_2,2023-01-03T04:21:57.088Z,,,b,,,315,499.86999999999534,timeout,e.jpg,,,196788.5,196701.974,196201.874,196287.5,196218.729,196718.599,
刺激提示,canvas.Screen,10_14_3,2023-01-03T04:21:58.565Z,,,b,true,b,315,1547.0009999999893,response,e.jpg,b,keypress(f),198266,198265.59999999998,196701.974,196788.8,196718.599,198201.75,
フィードバック(0.5秒),canvas.Screen,10_14_4,2023-01-03T04:21:59.070Z,,,b,,,315,500.06200000000536,timeout,e.jpg,,,198770.59999999998,198685.094,198185.201,198273.59999999998,198201.75,198701.812,
トライアル,flow.Sequence,10_14,2023-01-03T04:21:59.070Z,,,b,,,315,3966.6059999999998,completion,e.jpg,,,198770.59999999998,198685.094,194701.821,194787.5,194718.488,198701.812,
空白時間1 (0.5秒),canvas.Screen,10_15_0,2023-01-03T04:21:59.570Z,,,b,,,135,499.9119999999821,timeout,e.jpg,,,199270.5,199185.02,198685.094,198770.59999999998,198701.812,199201.724,
注視(1秒),canvas.Screen,10_15_1,2023-01-03T04:22:00.570Z,,,b,,,135,999.9440000000177,timeout,e.jpg,,,200270.40000000002,200184.994,199185.02,199270.59999999998,199201.724,200201.668,
空白時間2 (0.5秒),canvas.Screen,10_15_2,2023-01-03T04:22:01.070Z,,,b,,,135,499.9899999999907,timeout,e.jpg,,,200770.7,200685.081,200184.994,200270.5,200201.668,200701.658,
刺激提示,canvas.Screen,10_15_3,2023-01-03T04:22:03.687Z,,,b,true,b,135,2685.941999999981,response,e.jpg,b,keypress(f),203388.09999999998,203387.59999999998,200685.081,200770.90000000002,200701.658,203318.28,
フィードバック(0.5秒),canvas.Screen,10_15_4,2023-01-03T04:22:04.186Z,,,b,,,135,500.01699999999255,timeout,e.jpg,,,203887.2,203801.57,203301.617,203395.5,203318.28,203818.297,
トライアル,flow.Sequence,10_15,2023-01-03T04:22:04.187Z,,,b,,,135,5099.758000000002,completion,e.jpg,,,203887.2,203801.57,198685.094,198770.59999999998,198701.812,203818.297,
タスクのセット,flow.Loop,10,2023-01-03T04:22:04.187Z,,,,,,,81031.038,completion,,,,203887.3,203801.57,122753.847,122839.70000000001,122770.532,203818.297,
空白時間1 (0.5秒),canvas.Screen,11_0_0,2023-01-03T04:22:04.686Z,,,b,,,45,499.9429999999993,timeout,e.jpg,,,204387,204301.605,203801.57,203887.3,203818.297,204318.24,
注視(1秒),canvas.Screen,11_0_1,2023-01-03T04:22:05.687Z,,,b,,,45,999.9280000000144,timeout,e.jpg,,,205387.7,205301.487,204301.605,204387.09999999998,204318.24,205318.168,
空白時間2 (0.5秒),canvas.Screen,11_0_2,2023-01-03T04:22:06.186Z,,,b,,,45,500.0219999999972,timeout,e.jpg,,,205887,205801.533,205301.487,205387.8,205318.168,205818.19,
刺激提示,canvas.Screen,11_0_3,2023-01-03T04:22:06.890Z,,,b,true,b,45,772.3099999999977,response,e.jpg,b,keypress(f),206591,206590.5,205801.533,205887.09999999998,205818.19,206518.262,
フィードバック(0.5秒),canvas.Screen,11_0_4,2023-01-03T04:22:07.387Z,,,b,,,45,499.9110000000219,timeout,e.jpg,,,207087.7,207001.568,206501.447,206599,206518.262,207018.173,
トライアル,flow.Sequence,11_0,2023-01-03T04:22:07.387Z,,,b,,,45,3183.271000000008,completion,e.jpg,,,207087.90000000002,207001.568,203801.57,203887.3,203818.297,207018.173,
空白時間1 (0.5秒),canvas.Screen,11_1_0,2023-01-03T04:22:07.886Z,,,b,,,135,500.06299999999464,timeout,e.jpg,,,207586.8,207501.474,207001.568,207088,207018.173,207518.236,
注視(1秒),canvas.Screen,11_1_1,2023-01-03T04:22:08.886Z,,,b,,,135,999.9629999999888,timeout,e.jpg,,,208587,208501.528,207501.474,207586.90000000002,207518.236,208518.199,
空白時間2 (0.5秒),canvas.Screen,11_1_2,2023-01-03T04:22:09.386Z,,,b,,,135,499.90200000000186,timeout,e.jpg,,,209086.90000000002,209001.441,208501.528,208587,208518.199,209018.101,
刺激提示,canvas.Screen,11_1_3,2023-01-03T04:22:10.282Z,,,b,true,b,135,963.8990000000049,response,e.jpg,b,keypress(f),209982.5,209982,209001.441,209087.09999999998,209018.101,209918.158,
フィードバック(0.5秒),canvas.Screen,11_1_4,2023-01-03T04:22:10.786Z,,,b,,,135,499.9070000000065,timeout,e.jpg,,,210487,210401.491,209901.529,209990.59999999998,209918.158,210418.065,
トライアル,flow.Sequence,11_1,2023-01-03T04:22:10.786Z,,,b,,,135,3383.3179999999993,completion,e.jpg,,,210487.2,210401.491,207001.568,207087.90000000002,207018.173,210418.065,
空白時間1 (0.5秒),canvas.Screen,11_2_0,2023-01-03T04:22:11.286Z,,,b,,,180,500.05799999999,timeout,e.jpg,,,210987.09999999998,210901.37,210401.491,210487.2,210418.065,210918.123,
注視(1秒),canvas.Screen,11_2_1,2023-01-03T04:22:12.286Z,,,b,,,180,1000.0180000000109,timeout,e.jpg,,,211986.90000000002,211901.359,210901.37,210987.2,210918.123,211918.141,
空白時間2 (0.5秒),canvas.Screen,11_2_2,2023-01-03T04:22:12.786Z,,,b,,,180,499.92600000000675,timeout,e.jpg,,,212486.90000000002,212401.414,211901.359,211986.90000000002,211918.141,212418.067,
刺激提示,canvas.Screen,11_2_3,2023-01-03T04:22:14.352Z,,,b,true,b,180,1634.1330000000016,response,e.jpg,b,keypress(f),214052.8,214052.2,212401.414,212487,212418.067,213984.62,
フィードバック(0.5秒),canvas.Screen,11_2_4,2023-01-03T04:22:14.853Z,,,b,,,180,500.08300000001327,timeout,e.jpg,,,214553.5,214467.994,213968.043,214058.2,213984.62,214484.703,
トライアル,flow.Sequence,11_2,2023-01-03T04:22:14.853Z,,,b,,,180,4049.9290000000037,completion,e.jpg,,,214553.7,214467.994,210401.491,210487.2,210418.065,214484.703,
空白時間1 (0.5秒),canvas.Screen,11_3_0,2023-01-03T04:22:15.353Z,,,d,,,225,499.9979999999923,timeout,eR.jpg,,,215053.5,214967.949,214467.994,214553.8,214484.703,214984.701,
注視(1秒),canvas.Screen,11_3_1,2023-01-03T04:22:16.353Z,,,d,,,225,999.8669999999984,timeout,eR.jpg,,,216053.3,215967.944,214967.949,215053.59999999998,214984.701,215984.568,
空白時間2 (0.5秒),canvas.Screen,11_3_2,2023-01-03T04:22:16.853Z,,,d,,,225,499.99600000001374,timeout,eR.jpg,,,216553.3,216467.875,215967.944,216053.40000000002,215984.568,216484.564,
刺激提示,canvas.Screen,11_3_3,2023-01-03T04:22:18.561Z,,,d,true,d,225,1776.2359999999753,response,eR.jpg,d,keypress(j),218261.40000000002,218260.8,216467.875,216553.40000000002,216484.564,218201.79,
フィードバック(0.5秒),canvas.Screen,11_3_4,2023-01-03T04:22:19.069Z,,,d,,,225,499.4670000000042,timeout,eR.jpg,,,218770.09999999998,218684.567,218167.902,218268.40000000002,218201.79,218701.257,
トライアル,flow.Sequence,11_3,2023-01-03T04:22:19.069Z,,,d,,,225,4199.864000000001,completion,eR.jpg,,,218770.2,218684.567,214467.994,214553.7,214484.703,218701.257,
空白時間1 (0.5秒),canvas.Screen,11_4_0,2023-01-03T04:22:19.570Z,,,b,,,225,499.8949999999895,timeout,e.jpg,,,219270.2,219184.579,218684.567,218770.3,218701.257,219201.152,
注視(1秒),canvas.Screen,11_4_1,2023-01-03T04:22:20.569Z,,,b,,,225,999.9659999999858,timeout,e.jpg,,,220270,220184.539,219184.579,219270.3,219201.152,220201.118,
空白時間2 (0.5秒),canvas.Screen,11_4_2,2023-01-03T04:22:21.069Z,,,b,,,225,500.0470000000205,timeout,e.jpg,,,220769.90000000002,220684.428,220184.539,220270.09999999998,220201.118,220701.165,
刺激提示,canvas.Screen,11_4_3,2023-01-03T04:22:22.583Z,,,b,false,b,225,1582.5350000000035,response,e.jpg,d,keypress(j),222284.2,222283.7,220684.428,220770,220701.165,222217.747,
フィードバック(0.5秒),canvas.Screen,11_4_4,2023-01-03T04:22:23.086Z,,,b,,,225,500.0929999999935,timeout,e.jpg,,,222787,222701.177,222201.319,222292.09999999998,222217.747,222717.84,
トライアル,flow.Sequence,11_4,2023-01-03T04:22:23.086Z,,,b,,,225,3999.9199999999837,completion,e.jpg,,,222787.2,222701.177,218684.567,218770.3,218701.257,222717.84,
空白時間1 (0.5秒),canvas.Screen,11_5_0,2023-01-03T04:22:23.586Z,,,d,,,135,500.0340000000142,timeout,eR.jpg,,,223286.7,223201.194,222701.177,222787.3,222717.84,223217.874,
注視(1秒),canvas.Screen,11_5_1,2023-01-03T04:22:24.586Z,,,d,,,135,999.8979999999865,timeout,eR.jpg,,,224286.59999999998,224201.036,223201.194,223286.8,223217.874,224217.772,
空白時間2 (0.5秒),canvas.Screen,11_5_2,2023-01-03T04:22:25.086Z,,,d,,,135,500.0350000000035,timeout,eR.jpg,,,224786.5,224701,224201.036,224286.7,224217.772,224717.807,
刺激提示,canvas.Screen,11_5_3,2023-01-03T04:22:26.216Z,,,d,false,d,135,1198.893000000011,response,eR.jpg,b,keypress(f),225917.09999999998,225916.7,224701,224786.59999999998,224717.807,225852.36,
フィードバック(0.5秒),canvas.Screen,11_5_4,2023-01-03T04:22:26.719Z,,,d,,,135,498.69900000002235,timeout,eR.jpg,,,226420.09999999998,226334.377,225817.672,225918.40000000002,225852.36,226351.059,
トライアル,flow.Sequence,11_5,2023-01-03T04:22:26.720Z,,,d,,,135,3616.537000000011,completion,eR.jpg,,,226420.3,226334.377,222701.177,222787.3,222717.84,226351.059,
空白時間1 (0.5秒),canvas.Screen,11_6_0,2023-01-03T04:22:27.219Z,,,d,,,0,499.9419999999809,timeout,eR.jpg,,,226919.7,226834.333,226334.377,226420.3,226351.059,226851.001,
注視(1秒),canvas.Screen,11_6_1,2023-01-03T04:22:28.219Z,,,d,,,0,999.9809999999998,timeout,eR.jpg,,,227919.7,227834.233,226834.333,226919.90000000002,226851.001,227850.982,
空白時間2 (0.5秒),canvas.Screen,11_6_2,2023-01-03T04:22:28.719Z,,,d,,,0,499.94900000002235,timeout,eR.jpg,,,228419.7,228334.32,227834.233,227919.8,227850.982,228350.931,
刺激提示,canvas.Screen,11_6_3,2023-01-03T04:22:29.771Z,,,d,true,d,0,1120.4690000000119,response,eR.jpg,d,keypress(j),229471.90000000002,229471.40000000002,228334.32,228419.8,228350.931,229400.851,
フィードバック(0.5秒),canvas.Screen,11_6_4,2023-01-03T04:22:30.269Z,,,d,,,0,500.18600000001607,timeout,eR.jpg,,,229969.8,229884.241,229384.266,229480,229400.851,229901.037,
トライアル,flow.Sequence,11_6,2023-01-03T04:22:30.269Z,,,d,,,0,3533.1820000000007,completion,eR.jpg,,,229969.90000000002,229884.241,226334.377,226420.3,226351.059,229901.037,
空白時間1 (0.5秒),canvas.Screen,11_7_0,2023-01-03T04:22:30.769Z,,,b,,,270,499.90299999999115,timeout,e.jpg,,,230469.5,230384.172,229884.241,229969.90000000002,229901.037,230400.94,
注視(1秒),canvas.Screen,11_7_1,2023-01-03T04:22:31.769Z,,,b,,,270,999.8530000000028,timeout,e.jpg,,,231469.7,231384.136,230384.172,230469.59999999998,230400.94,231400.793,
空白時間2 (0.5秒),canvas.Screen,11_7_2,2023-01-03T04:22:32.269Z,,,b,,,270,500.2619999999879,timeout,e.jpg,,,231969.90000000002,231884.129,231384.136,231469.8,231400.793,231901.055,
刺激提示,canvas.Screen,11_7_3,2023-01-03T04:22:35.085Z,,,b,false,b,270,2883.945000000007,response,e.jpg,d,keypress(j),234785.5,234785,231884.129,231970,231901.055,234717.389,
フィードバック(0.5秒),canvas.Screen,11_7_4,2023-01-03T04:22:35.585Z,,,b,,,270,500.08699999999953,timeout,e.jpg,,,235286.2,235200.715,234700.765,234791,234717.389,235217.476,
トライアル,flow.Sequence,11_7,2023-01-03T04:22:35.586Z,,,b,,,270,5299.677999999985,completion,e.jpg,,,235286.3,235200.715,229884.241,229969.90000000002,229901.037,235217.476,
空白時間1 (0.5秒),canvas.Screen,11_8_0,2023-01-03T04:22:36.085Z,,,d,,,270,499.91300000000047,timeout,eR.jpg,,,235786.09999999998,235700.706,235200.715,235286.40000000002,235217.476,235717.389,
注視(1秒),canvas.Screen,11_8_1,2023-01-03T04:22:37.085Z,,,d,,,270,999.9899999999907,timeout,eR.jpg,,,236786.2,236700.707,235700.706,235786.2,235717.389,236717.379,
空白時間2 (0.5秒),canvas.Screen,11_8_2,2023-01-03T04:22:37.585Z,,,d,,,270,500.0350000000035,timeout,eR.jpg,,,237286.09999999998,237200.644,236700.707,236786.3,236717.379,237217.414,
刺激提示,canvas.Screen,11_8_3,2023-01-03T04:22:39.226Z,,,d,true,d,270,1708.3859999999986,response,eR.jpg,d,keypress(j),238926.3,238925.8,237200.644,237286.2,237217.414,238850.647,
フィードバック(0.5秒),canvas.Screen,11_8_4,2023-01-03T04:22:39.721Z,,,d,,,270,500.01800000001094,timeout,eR.jpg,,,239421.5,239336.055,238834.003,238932.40000000002,238850.647,239350.665,
トライアル,flow.Sequence,11_8,2023-01-03T04:22:39.721Z,,,d,,,270,4118.578999999998,completion,eR.jpg,,,239421.7,239336.055,235200.715,235286.40000000002,235217.476,239350.665,
空白時間1 (0.5秒),canvas.Screen,11_9_0,2023-01-03T04:22:40.222Z,,,d,,,90,500.04899999999907,timeout,eR.jpg,,,239923.09999999998,239833.942,239336.055,239421.7,239350.665,239850.714,
注視(1秒),canvas.Screen,11_9_1,2023-01-03T04:22:41.219Z,,,d,,,90,999.8669999999984,timeout,eR.jpg,,,240919.59999999998,240834.026,239833.942,239923.2,239850.714,240850.581,
空白時間2 (0.5秒),canvas.Screen,11_9_2,2023-01-03T04:22:41.719Z,,,d,,,90,499.9899999999907,timeout,eR.jpg,,,241419.40000000002,241333.939,240834.026,240919.59999999998,240850.581,241350.571,
刺激提示,canvas.Screen,11_9_3,2023-01-03T04:22:43.619Z,,,d,true,d,90,1968.0289999999804,response,eR.jpg,d,keypress(j),243319.3,243318.59999999998,241333.939,241419.5,241350.571,243250.528,
フィードバック(0.5秒),canvas.Screen,11_9_4,2023-01-03T04:22:44.119Z,,,d,,,90,499.95000000001164,timeout,eR.jpg,,,243819.2,243733.89,243233.762,243326,243250.528,243750.478,
トライアル,flow.Sequence,11_9,2023-01-03T04:22:44.119Z,,,d,,,90,4383.225000000006,completion,eR.jpg,,,243819.40000000002,243733.89,239336.055,239421.7,239350.665,243750.478,
空白時間1 (0.5秒),canvas.Screen,11_10_0,2023-01-03T04:22:44.619Z,,,b,,,0,500.2509999999893,timeout,e.jpg,,,244319.3,244233.834,243733.89,243819.5,243750.478,244250.729,
注視(1秒),canvas.Screen,11_10_1,2023-01-03T04:22:45.619Z,,,b,,,0,999.7939999999944,timeout,e.jpg,,,245320.09999999998,245233.851,244233.834,244319.5,244250.729,245250.523,
空白時間2 (0.5秒),canvas.Screen,11_10_2,2023-01-03T04:22:46.119Z,,,b,,,0,499.9650000000256,timeout,e.jpg,,,245819.2,245733.745,245233.851,245320.09999999998,245250.523,245750.488,
刺激提示,canvas.Screen,11_10_3,2023-01-03T04:22:47.074Z,,,b,true,b,0,1023.2119999999995,response,e.jpg,b,keypress(f),246774.2,246773.7,245733.745,245819.3,245750.488,246700.376,
フィードバック(0.5秒),canvas.Screen,11_10_4,2023-01-03T04:22:47.569Z,,,b,,,0,500.01800000001094,timeout,e.jpg,,,247269.3,247183.798,246683.758,246782.7,246700.376,247200.394,
トライアル,flow.Sequence,11_10,2023-01-03T04:22:47.569Z,,,b,,,0,3433.320000000007,completion,e.jpg,,,247269.5,247183.798,243733.89,243819.40000000002,243750.478,247200.394,
空白時間1 (0.5秒),canvas.Screen,11_11_0,2023-01-03T04:22:48.068Z,,,b,,,90,499.9979999999923,timeout,e.jpg,,,247769.2,247683.753,247183.798,247269.5,247200.394,247700.392,
注視(1秒),canvas.Screen,11_11_1,2023-01-03T04:22:49.068Z,,,b,,,90,1000.0590000000084,timeout,e.jpg,,,248769.2,248683.754,247683.753,247769.3,247700.392,248700.451,
空白時間2 (0.5秒),canvas.Screen,11_11_2,2023-01-03T04:22:49.569Z,,,b,,,90,500.0130000000063,timeout,e.jpg,,,249269.40000000002,249183.766,248683.754,248769.3,248700.451,249200.464,
刺激提示,canvas.Screen,11_11_3,2023-01-03T04:22:50.425Z,,,b,true,b,90,924.6359999999695,response,e.jpg,b,keypress(f),250125.5,250125.09999999998,249183.766,249269.5,249200.464,250050.327,
フィードバック(0.5秒),canvas.Screen,11_11_4,2023-01-03T04:22:50.918Z,,,b,,,90,500.22299999999814,timeout,e.jpg,,,250619.2,250533.698,250033.713,250131.40000000002,250050.327,250550.55,
トライアル,flow.Sequence,11_11,2023-01-03T04:22:50.919Z,,,b,,,90,3333.3040000000037,completion,e.jpg,,,250619.2,250533.698,247183.798,247269.5,247200.394,250550.55,
空白時間1 (0.5秒),canvas.Screen,11_12_0,2023-01-03T04:22:51.419Z,,,b,,,315,499.820000000007,timeout,e.jpg,,,251119.3,251033.691,250533.698,250619.40000000002,250550.55,251050.37,
注視(1秒),canvas.Screen,11_12_1,2023-01-03T04:22:52.418Z,,,b,,,315,999.9060000000172,timeout,e.jpg,,,252119.2,252033.662,251033.691,251119.40000000002,251050.37,252050.276,
空白時間2 (0.5秒),canvas.Screen,11_12_2,2023-01-03T04:22:52.918Z,,,b,,,315,500.07299999997485,timeout,e.jpg,,,252619.2,252533.652,252033.662,252119.3,252050.276,252550.349,
刺激提示,canvas.Screen,11_12_3,2023-01-03T04:22:54.351Z,,,b,false,b,315,1500.8510000000242,response,e.jpg,d,keypress(j),254051.90000000002,254051.2,252533.652,252619.3,252550.349,253983.528,
フィードバック(0.5秒),canvas.Screen,11_12_4,2023-01-03T04:22:54.852Z,,,b,,,315,500.0789999999979,timeout,e.jpg,,,254552.40000000002,254466.922,253966.921,254052.5,253983.528,254483.607,
トライアル,flow.Sequence,11_12,2023-01-03T04:22:54.852Z,,,b,,,315,3916.372000000003,completion,e.jpg,,,254552.59999999998,254466.922,250533.698,250619.40000000002,250550.55,254483.607,
空白時間1 (0.5秒),canvas.Screen,11_13_0,2023-01-03T04:22:55.352Z,,,d,,,315,499.9870000000228,timeout,eR.jpg,,,255052.3,254966.916,254466.922,254552.7,254483.607,254983.594,
注視(1秒),canvas.Screen,11_13_1,2023-01-03T04:22:56.351Z,,,d,,,315,999.9409999999916,timeout,eR.jpg,,,256052.2,255966.809,254966.916,255052.5,254983.594,255983.535,
空白時間2 (0.5秒),canvas.Screen,11_13_2,2023-01-03T04:22:56.852Z,,,d,,,315,499.96199999999953,timeout,eR.jpg,,,256552.3,256466.878,255966.809,256052.3,255983.535,256483.497,
刺激提示,canvas.Screen,11_13_3,2023-01-03T04:22:57.516Z,,,d,true,d,315,732.502999999997,response,eR.jpg,d,keypress(j),257216.5,257216,256466.878,256552.40000000002,256483.497,257150.209,
フィードバック(0.5秒),canvas.Screen,11_13_4,2023-01-03T04:22:58.018Z,,,d,,,315,499.89300000001094,timeout,eR.jpg,,,257719.09999999998,257633.501,257133.514,257222.5,257150.209,257650.102,
トライアル,flow.Sequence,11_13,2023-01-03T04:22:58.019Z,,,d,,,315,3149.8940000000002,completion,eR.jpg,,,257719.3,257633.501,254466.922,254552.59999999998,254483.607,257650.102,
空白時間1 (0.5秒),canvas.Screen,11_14_0,2023-01-03T04:22:58.518Z,,,d,,,180,500.07499999998254,timeout,eR.jpg,,,258218.90000000002,258133.492,257633.501,257719.3,257650.102,258150.177,
注視(1秒),canvas.Screen,11_14_1,2023-01-03T04:22:59.518Z,,,d,,,180,999.9800000000105,timeout,eR.jpg,,,259219,259133.475,258133.492,258219,258150.177,259150.157,
空白時間2 (0.5秒),canvas.Screen,11_14_2,2023-01-03T04:23:00.018Z,,,d,,,180,499.945000000007,timeout,eR.jpg,,,259718.90000000002,259633.385,259133.475,259219.09999999998,259150.157,259650.102,
刺激提示,canvas.Screen,11_14_3,2023-01-03T04:23:02.756Z,,,d,true,d,180,2805.197999999975,response,eR.jpg,d,keypress(j),262456.8,262455.3,259633.385,259719.09999999998,259650.102,262383.341,
フィードバック(0.5秒),canvas.Screen,11_14_4,2023-01-03T04:23:03.252Z,,,d,,,180,500.0260000000126,timeout,eR.jpg,,,262952.5,262866.88,262366.775,262466,262383.341,262883.367,
トライアル,flow.Sequence,11_14,2023-01-03T04:23:03.252Z,,,d,,,180,5216.777999999991,completion,eR.jpg,,,262952.7,262866.88,257633.501,257719.3,257650.102,262883.367,
空白時間1 (0.5秒),canvas.Screen,11_15_0,2023-01-03T04:23:03.751Z,,,d,,,45,499.9419999999809,timeout,eR.jpg,,,263452,263366.593,262866.88,262952.7,262883.367,263383.309,
注視(1秒),canvas.Screen,11_15_1,2023-01-03T04:23:04.751Z,,,d,,,45,999.9969999999739,timeout,eR.jpg,,,264452,264366.601,263366.593,263452.1,263383.309,264383.306,
空白時間2 (0.5秒),canvas.Screen,11_15_2,2023-01-03T04:23:05.251Z,,,d,,,45,499.9349999999977,timeout,eR.jpg,,,264952.1,264866.654,264366.601,264452.1,264383.306,264883.241,
刺激提示,canvas.Screen,11_15_3,2023-01-03T04:23:06.317Z,,,d,false,d,45,1134.3589999999967,response,eR.jpg,b,keypress(f),266018.1,266017.6,264866.654,264952.3,264883.241,265949.884,
フィードバック(0.5秒),canvas.Screen,11_15_4,2023-01-03T04:23:06.818Z,,,d,,,45,500.0449999999837,timeout,eR.jpg,,,266518.6,266433.201,265933.187,266019.4,265949.884,266449.929,
トライアル,flow.Sequence,11_15,2023-01-03T04:23:06.818Z,,,d,,,45,3549.8339999999735,completion,eR.jpg,,,266518.7,266433.201,262866.88,262952.7,262883.367,266449.929,
タスクのセット,flow.Loop,11,2023-01-03T04:23:06.818Z,,,,,,,62614.90400000001,completion,,,,266518.9,266433.201,203801.57,203887.3,203818.297,266449.929,
空白時間1 (0.5秒),canvas.Screen,12_0_0,2023-01-03T04:23:07.318Z,,,b,,,135,499.9309999999823,timeout,e.jpg,,,267018.7,266933.266,266433.201,266518.9,266449.929,266949.86,
注視(1秒),canvas.Screen,12_0_1,2023-01-03T04:23:08.318Z,,,b,,,135,1000.2449999999953,timeout,e.jpg,,,268018.7,267933.202,266933.266,267018.8,266949.86,267950.105,
空白時間2 (0.5秒),canvas.Screen,12_0_2,2023-01-03T04:23:08.818Z,,,b,,,135,499.75700000004144,timeout,e.jpg,,,268518.6,268433.195,267933.202,268018.8,267950.105,268449.862,
刺激提示,canvas.Screen,12_0_3,2023-01-03T04:23:09.976Z,,,b,false,b,135,1225.9379999999655,response,e.jpg,d,keypress(j),269676.4,269675.8,268433.195,268518.7,268449.862,269599.772,
フィードバック(0.5秒),canvas.Screen,12_0_4,2023-01-03T04:23:10.468Z,,,b,,,135,500.02799999999115,timeout,e.jpg,,,270168.6,270083.136,269583.073,269682.8,269599.772,270099.8,
トライアル,flow.Sequence,12_0,2023-01-03T04:23:10.468Z,,,b,,,135,3633.206999999995,completion,e.jpg,,,270168.8,270083.136,266433.201,266518.9,266449.929,270099.8,
空白時間1 (0.5秒),canvas.Screen,12_1_0,2023-01-03T04:23:10.968Z,,,d,,,0,499.9990000000107,timeout,eR.jpg,,,270668.6,270583.16,270083.136,270168.9,270099.8,270599.799,
注視(1秒),canvas.Screen,12_1_1,2023-01-03T04:23:11.968Z,,,d,,,0,999.9189999999944,timeout,eR.jpg,,,271668.7,271583.097,270583.16,270668.7,270599.799,271599.718,
空白時間2 (0.5秒),canvas.Screen,12_1_2,2023-01-03T04:23:12.468Z,,,d,,,0,500.0929999999935,timeout,eR.jpg,,,272168.5,272083.018,271583.097,271668.8,271599.718,272099.811,
刺激提示,canvas.Screen,12_1_3,2023-01-03T04:23:13.293Z,,,d,true,d,0,893.3890000000247,response,eR.jpg,d,keypress(j),272993.8,272993.2,272083.018,272168.6,272099.811,272933.09,
フィードバック(0.5秒),canvas.Screen,12_1_4,2023-01-03T04:23:13.801Z,,,d,,,0,499.96199999999953,timeout,eR.jpg,,,273501.9,273416.37,272916.36,273001.4,272933.09,273433.052,
トライアル,flow.Sequence,12_1,2023-01-03T04:23:13.801Z,,,d,,,0,3316.570000000007,completion,eR.jpg,,,273502,273416.37,270083.136,270168.8,270099.8,273433.052,
空白時間1 (0.5秒),canvas.Screen,12_2_0,2023-01-03T04:23:14.301Z,,,b,,,225,499.96899999998277,timeout,e.jpg,,,274001.7,273916.322,273416.37,273502.1,273433.052,273933.021,
注視(1秒),canvas.Screen,12_2_1,2023-01-03T04:23:15.301Z,,,b,,,225,999.9990000000107,timeout,e.jpg,,,275001.7,274916.342,273916.322,274001.8,273933.021,274933.02,
空白時間2 (0.5秒),canvas.Screen,12_2_2,2023-01-03T04:23:15.801Z,,,b,,,225,500.00599999999395,timeout,e.jpg,,,275501.5,275416.303,274916.342,275001.9,274933.02,275433.026,
刺激提示,canvas.Screen,12_2_3,2023-01-03T04:23:18.091Z,,,b,true,b,225,2358.3740000000107,response,e.jpg,b,keypress(f),277791.8,277791.4,275416.303,275501.7,275433.026,277717.583,
フィードバック(0.5秒),canvas.Screen,12_2_4,2023-01-03T04:23:18.586Z,,,b,,,225,498.7129999999888,timeout,e.jpg,,,278286.4,278199.611,277699.625,277800.6,277717.583,278216.296,
トライアル,flow.Sequence,12_2,2023-01-03T04:23:18.586Z,,,b,,,225,4766.55899999995,completion,e.jpg,,,278286.6,278199.611,273416.37,273502.1,273433.052,278216.296,
空白時間1 (0.5秒),canvas.Screen,12_3_0,2023-01-03T04:23:19.084Z,,,d,,,45,499.89300000004005,timeout,eR.jpg,,,278785.1,278699.558,278199.611,278286.7,278216.296,278716.189,
注視(1秒),canvas.Screen,12_3_1,2023-01-03T04:23:20.084Z,,,d,,,45,1000.0709999999963,timeout,eR.jpg,,,279784.9,279699.44,278699.558,278785.1,278716.189,279716.26,
空白時間2 (0.5秒),canvas.Screen,12_3_2,2023-01-03T04:23:20.584Z,,,d,,,45,500.08299999998417,timeout,eR.jpg,,,280285,280199.515,279699.44,279785.1,279716.26,280216.343,
刺激提示,canvas.Screen,12_3_3,2023-01-03T04:23:21.461Z,,,d,true,d,45,944.3570000000182,response,eR.jpg,d,keypress(j),281161.3,281160.7,280199.515,280285.1,280216.343,281099.525,
フィードバック(0.5秒),canvas.Screen,12_3_4,2023-01-03T04:23:21.967Z,,,d,,,45,500.0139999999665,timeout,eR.jpg,,,281668.1,281582.769,281066.286,281167.2,281099.525,281599.539,
トライアル,flow.Sequence,12_3,2023-01-03T04:23:21.968Z,,,d,,,45,3366.472999999998,completion,eR.jpg,,,281668.4,281582.769,278199.611,278286.6,278216.296,281599.539,
空白時間1 (0.5秒),canvas.Screen,12_4_0,2023-01-03T04:23:22.468Z,,,d,,,225,499.9670000000042,timeout,eR.jpg,,,282168.5,282082.86,281582.769,281668.4,281599.539,282099.506,
注視(1秒),canvas.Screen,12_4_1,2023-01-03T04:23:23.467Z,,,d,,,225,1000.0430000000051,timeout,eR.jpg,,,283168.2,283082.818,282082.86,282168.7,282099.506,283099.549,
空白時間2 (0.5秒),canvas.Screen,12_4_2,2023-01-03T04:23:23.968Z,,,d,,,225,499.91399999998976,timeout,eR.jpg,,,283668.2,283582.801,283082.818,283168.3,283099.549,283599.463,
刺激提示,canvas.Screen,12_4_3,2023-01-03T04:23:24.971Z,,,d,true,d,225,1071.5370000000112,response,eR.jpg,d,keypress(j),284671.5,284671,283582.801,283668.3,283599.463,284599.427,
フィードバック(0.5秒),canvas.Screen,12_4_4,2023-01-03T04:23:25.468Z,,,d,,,225,500.01899999997113,timeout,eR.jpg,,,285168.2,285082.753,284582.758,284680.3,284599.427,285099.446,
トライアル,flow.Sequence,12_4,2023-01-03T04:23:25.468Z,,,d,,,225,3483.2140000000363,completion,eR.jpg,,,285168.4,285082.753,281582.769,281668.4,281599.539,285099.446,
空白時間1 (0.5秒),canvas.Screen,12_5_0,2023-01-03T04:23:25.968Z,,,d,,,90,500.0109999999986,timeout,eR.jpg,,,285668.5,285582.71,285082.753,285168.4,285099.446,285599.457,
注視(1秒),canvas.Screen,12_5_1,2023-01-03T04:23:26.967Z,,,d,,,90,1000.015000000014,timeout,eR.jpg,,,286668,286582.615,285582.71,285668.6,285599.457,286599.472,
空白時間2 (0.5秒),canvas.Screen,12_5_2,2023-01-03T04:23:27.468Z,,,d,,,90,499.91499999997905,timeout,eR.jpg,,,287168.1,287082.704,286582.615,286668.1,286599.472,287099.387,
刺激提示,canvas.Screen,12_5_3,2023-01-03T04:23:30.102Z,,,d,true,d,90,2702.8129999999655,response,eR.jpg,d,keypress(j),289802.6,289802.19999999995,287082.704,287168.3,287099.387,289732.546,
フィードバック(0.5秒),canvas.Screen,12_5_4,2023-01-03T04:23:30.601Z,,,d,,,90,500.070000000007,timeout,eR.jpg,,,290301.4,290215.948,289715.919,289810.4,289732.546,290232.616,
トライアル,flow.Sequence,12_5,2023-01-03T04:23:30.601Z,,,d,,,90,5116.501999999979,completion,eR.jpg,,,290301.6,290215.948,285082.753,285168.4,285099.446,290232.616,
空白時間1 (0.5秒),canvas.Screen,12_6_0,2023-01-03T04:23:31.101Z,,,d,,,135,499.99400000000605,timeout,eR.jpg,,,290801.4,290715.901,290215.948,290301.6,290232.616,290732.61,
注視(1秒),canvas.Screen,12_6_1,2023-01-03T04:23:32.101Z,,,d,,,135,999.9860000000335,timeout,eR.jpg,,,291801.30000000005,291715.898,290715.901,290801.4,290732.61,291732.596,
空白時間2 (0.5秒),canvas.Screen,12_6_2,2023-01-03T04:23:32.601Z,,,d,,,135,499.9649999999674,timeout,eR.jpg,,,292301.4,292215.898,291715.898,291801.5,291732.596,292232.561,
刺激提示,canvas.Screen,12_6_3,2023-01-03T04:23:34.541Z,,,d,false,d,135,2008.439000000013,response,eR.jpg,b,keypress(f),294241.4,294241,292215.898,292301.4,292232.561,294182.523,
フィードバック(0.5秒),canvas.Screen,12_6_4,2023-01-03T04:23:35.051Z,,,d,,,135,499.9750000000349,timeout,eR.jpg,,,294751.30000000005,294665.805,294149.347,294250,294182.523,294682.498,
トライアル,flow.Sequence,12_6,2023-01-03T04:23:35.051Z,,,d,,,135,4433.189000000013,completion,eR.jpg,,,294751.30000000005,294665.805,290215.948,290301.6,290232.616,294682.498,
空白時間1 (0.5秒),canvas.Screen,12_7_0,2023-01-03T04:23:35.551Z,,,d,,,315,499.8829999999725,timeout,eR.jpg,,,295251.19999999995,295165.774,294665.805,294751.4,294682.498,295182.381,
注視(1秒),canvas.Screen,12_7_1,2023-01-03T04:23:36.551Z,,,d,,,315,1000.1149999999907,timeout,eR.jpg,,,296251.30000000005,296165.776,295165.774,295251.30000000005,295182.381,296182.496,
空白時間2 (0.5秒),canvas.Screen,12_7_2,2023-01-03T04:23:37.051Z,,,d,,,315,499.9420000000391,timeout,eR.jpg,,,296751.19999999995,296665.766,296165.776,296251.30000000005,296182.496,296682.438,
刺激提示,canvas.Screen,12_7_3,2023-01-03T04:23:38.151Z,,,d,true,d,315,1168.2619999999297,response,eR.jpg,d,keypress(j),297851.19999999995,297850.69999999995,296665.766,296751.30000000005,296682.438,297782.313,
フィードバック(0.5秒),canvas.Screen,12_7_4,2023-01-03T04:23:38.651Z,,,d,,,315,500.0650000000023,timeout,eR.jpg,,,298351.19999999995,298265.622,297765.73,297852.19999999995,297782.313,298282.378,
トライアル,flow.Sequence,12_7,2023-01-03T04:23:38.651Z,,,d,,,315,3583.1239999999525,completion,eR.jpg,,,298351.30000000005,298265.622,294665.805,294751.4,294682.498,298282.378,
空白時間1 (0.5秒),canvas.Screen,12_8_0,2023-01-03T04:23:39.151Z,,,d,,,270,500.0209999999497,timeout,eR.jpg,,,298851.19999999995,298765.683,298265.622,298351.5,298282.378,298782.399,
注視(1秒),canvas.Screen,12_8_1,2023-01-03T04:23:40.150Z,,,d,,,270,999.9079999999958,timeout,eR.jpg,,,299851.1,299765.66,298765.683,298851.4,298782.399,299782.307,
空白時間2 (0.5秒),canvas.Screen,12_8_2,2023-01-03T04:23:40.651Z,,,d,,,270,499.9910000000382,timeout,eR.jpg,,,300351.4,300265.844,299765.66,299851.19999999995,299782.307,300282.298,
刺激提示,canvas.Screen,12_8_3,2023-01-03T04:23:42.612Z,,,d,true,d,270,2029.5020000000368,response,eR.jpg,d,keypress(j),302312.19999999995,302311.80000000005,300265.844,300351.4,300282.298,302248.999,
フィードバック(0.5秒),canvas.Screen,12_8_4,2023-01-03T04:23:43.117Z,,,d,,,270,499.93799999996554,timeout,eR.jpg,,,302817.69999999995,302732.24,302232.231,302317.9,302248.999,302748.937,
トライアル,flow.Sequence,12_8,2023-01-03T04:23:43.117Z,,,d,,,270,4449.861999999965,completion,eR.jpg,,,302817.80000000005,302732.24,298265.622,298351.4,298282.378,302748.937,
空白時間1 (0.5秒),canvas.Screen,12_9_0,2023-01-03T04:23:43.617Z,,,b,,,0,499.9180000000051,timeout,e.jpg,,,303317.69999999995,303232.177,302732.24,302817.9,302748.937,303248.855,
注視(1秒),canvas.Screen,12_9_1,2023-01-03T04:23:44.617Z,,,b,,,0,1000.0450000000419,timeout,e.jpg,,,304317.69999999995,304232.135,303232.177,303317.80000000005,303248.855,304248.9,
空白時間2 (0.5秒),canvas.Screen,12_9_2,2023-01-03T04:23:45.117Z,,,b,,,0,499.96999999997206,timeout,e.jpg,,,304817.69999999995,304732.184,304232.135,304317.69999999995,304248.9,304748.87,
刺激提示,canvas.Screen,12_9_3,2023-01-03T04:23:46.053Z,,,b,false,b,0,1004.3299999999581,response,e.jpg,d,keypress(j),305753.69999999995,305753.19999999995,304732.184,304817.69999999995,304748.87,305682.171,
フィードバック(0.5秒),canvas.Screen,12_9_4,2023-01-03T04:23:46.550Z,,,b,,,0,499.9210000000312,timeout,e.jpg,,,306251,306165.414,305665.481,305754.69999999995,305682.171,306182.092,
トライアル,flow.Sequence,12_9,2023-01-03T04:23:46.550Z,,,b,,,0,3416.4770000000135,completion,e.jpg,,,306251.1,306165.414,302732.24,302817.9,302748.937,306182.092,
空白時間1 (0.5秒),canvas.Screen,12_10_0,2023-01-03T04:23:47.050Z,,,b,,,315,500.1790000000037,timeout,e.jpg,,,306750.9,306665.528,306165.414,306251.1,306182.092,306682.271,
注視(1秒),canvas.Screen,12_10_1,2023-01-03T04:23:48.050Z,,,b,,,315,999.7820000000065,timeout,e.jpg,,,307750.80000000005,307665.377,306665.528,306751.1,306682.271,307682.053,
空白時間2 (0.5秒),canvas.Screen,12_10_2,2023-01-03T04:23:48.550Z,,,b,,,315,500.0779999999795,timeout,e.jpg,,,308251.1,308165.452,307665.377,307750.9,307682.053,308182.131,
刺激提示,canvas.Screen,12_10_3,2023-01-03T04:23:49.635Z,,,b,true,b,315,1153.4689999999828,response,e.jpg,b,keypress(f),309336.1,309335.6,308165.452,308251.30000000005,308182.131,309265.411,
フィードバック(0.5秒),canvas.Screen,12_10_4,2023-01-03T04:23:50.134Z,,,b,,,315,500.00500000000466,timeout,e.jpg,,,309834.19999999995,309748.751,309248.741,309343.9,309265.411,309765.416,
トライアル,flow.Sequence,12_10,2023-01-03T04:23:50.134Z,,,b,,,315,3566.658999999985,completion,e.jpg,,,309834.4,309748.751,306165.414,306251.1,306182.092,309765.416,
空白時間1 (0.5秒),canvas.Screen,12_11_0,2023-01-03T04:23:50.634Z,,,b,,,45,500.0079999999725,timeout,e.jpg,,,310334.19999999995,310248.709,309748.751,309834.5,309765.416,310265.424,
注視(1秒),canvas.Screen,12_11_1,2023-01-03T04:23:51.634Z,,,b,,,45,999.960000000021,timeout,e.jpg,,,311334.19999999995,311248.746,310248.709,310334.19999999995,310265.424,311265.384,
空白時間2 (0.5秒),canvas.Screen,12_11_2,2023-01-03T04:23:52.134Z,,,b,,,45,499.91199999995297,timeout,e.jpg,,,311834.1,311748.693,311248.746,311334.19999999995,311265.384,311765.296,
刺激提示,canvas.Screen,12_11_3,2023-01-03T04:23:53.507Z,,,b,false,b,45,1441.8040000000037,response,e.jpg,d,keypress(j),313207.6,313207.1,311748.693,311834.19999999995,311765.296,313149.035,
フィードバック(0.5秒),canvas.Screen,12_11_4,2023-01-03T04:23:54.017Z,,,b,,,45,499.6260000000475,timeout,e.jpg,,,313717.5,313631.968,313115.3,313215.80000000005,313149.035,313648.661,
トライアル,flow.Sequence,12_11,2023-01-03T04:23:54.017Z,,,b,,,45,3866.551999999967,completion,e.jpg,,,313717.69999999995,313631.968,309748.751,309834.5,309765.416,313648.661,
空白時間1 (0.5秒),canvas.Screen,12_12_0,2023-01-03T04:23:54.517Z,,,d,,,180,500.01799999998184,timeout,eR.jpg,,,314217.4,314131.957,313631.968,313717.69999999995,313648.661,314148.679,
注視(1秒),canvas.Screen,12_12_1,2023-01-03T04:23:55.517Z,,,d,,,180,999.914999999979,timeout,eR.jpg,,,315217.4,315131.929,314131.957,314217.5,314148.679,315148.594,
空白時間2 (0.5秒),canvas.Screen,12_12_2,2023-01-03T04:23:56.017Z,,,d,,,180,500.0360000000219,timeout,eR.jpg,,,315717.4,315631.961,315131.929,315217.6,315148.594,315648.63,
刺激提示,canvas.Screen,12_12_3,2023-01-03T04:23:58.587Z,,,d,true,d,180,2638.069999999949,response,eR.jpg,d,keypress(j),318287.19999999995,318286.69999999995,315631.961,315717.6,315648.63,318215.218,
フィードバック(0.5秒),canvas.Screen,12_12_4,2023-01-03T04:23:59.083Z,,,d,,,180,499.9739999999874,timeout,eR.jpg,,,318783.80000000005,318698.375,318198.512,318295.9,318215.218,318715.192,
トライアル,flow.Sequence,12_12,2023-01-03T04:23:59.083Z,,,d,,,180,5049.713999999978,completion,eR.jpg,,,318783.9,318698.375,313631.968,313717.69999999995,313648.661,318715.192,
空白時間1 (0.5秒),canvas.Screen,12_13_0,2023-01-03T04:23:59.584Z,,,b,,,180,499.9010000000126,timeout,e.jpg,,,319284.30000000005,319198.648,318698.375,318783.9,318715.192,319215.093,
注視(1秒),canvas.Screen,12_13_1,2023-01-03T04:24:00.583Z,,,b,,,180,1000.0460000000312,timeout,e.jpg,,,320284,320198.373,319198.648,319284.4,319215.093,320215.139,
空白時間2 (0.5秒),canvas.Screen,12_13_2,2023-01-03T04:24:01.083Z,,,b,,,180,499.8869999999879,timeout,e.jpg,,,320783.69999999995,320698.342,320198.373,320284.1,320215.139,320715.026,
刺激提示,canvas.Screen,12_13_3,2023-01-03T04:24:05.434Z,,,b,false,b,180,4419.274000000034,response,e.jpg,d,keypress(j),325135.1,325134.30000000005,320698.342,320783.80000000005,320715.026,325064.925,
フィードバック(0.5秒),canvas.Screen,12_13_4,2023-01-03T04:24:05.933Z,,,b,,,180,499.9739999999874,timeout,e.jpg,,,325633.6,325548.222,325048.243,325143.5,325064.925,325564.899,
トライアル,flow.Sequence,12_13,2023-01-03T04:24:05.933Z,,,b,,,180,6833.030000000028,completion,e.jpg,,,325633.6,325548.222,318698.375,318783.9,318715.192,325564.899,
空白時間1 (0.5秒),canvas.Screen,12_14_0,2023-01-03T04:24:06.433Z,,,b,,,270,499.98399999999674,timeout,e.jpg,,,326133.80000000005,326048.273,325548.222,325633.69999999995,325564.899,326064.883,
注視(1秒),canvas.Screen,12_14_1,2023-01-03T04:24:07.433Z,,,b,,,270,1000.0680000000284,timeout,e.jpg,,,327133.69999999995,327048.272,326048.273,326133.9,326064.883,327064.951,
空白時間2 (0.5秒),canvas.Screen,12_14_2,2023-01-03T04:24:07.933Z,,,b,,,270,499.95799999998417,timeout,e.jpg,,,327633.9,327548.226,327048.272,327133.80000000005,327064.951,327564.909,
刺激提示,canvas.Screen,12_14_3,2023-01-03T04:24:09.036Z,,,b,false,b,270,1171.591000000015,response,e.jpg,d,keypress(j),328736.9,328736.5,327548.226,327634,327564.909,328664.846,
フィードバック(0.5秒),canvas.Screen,12_14_4,2023-01-03T04:24:09.535Z,,,b,,,270,500.07499999995343,timeout,e.jpg,,,329235.6,329148.225,328648.18,328737.80000000005,328664.846,329164.921,
トライアル,flow.Sequence,12_14,2023-01-03T04:24:09.535Z,,,b,,,270,3583.326000000001,completion,e.jpg,,,329235.69999999995,329148.225,325548.222,325633.69999999995,325564.899,329164.921,
空白時間1 (0.5秒),canvas.Screen,12_15_0,2023-01-03T04:24:10.033Z,,,b,,,90,499.908000000054,timeout,e.jpg,,,329733.6,329648.124,329148.225,329235.80000000005,329164.921,329664.829,
注視(1秒),canvas.Screen,12_15_1,2023-01-03T04:24:11.033Z,,,b,,,90,999.9249999999884,timeout,e.jpg,,,330733.4,330648.074,329648.124,329733.69999999995,329664.829,330664.754,
空白時間2 (0.5秒),canvas.Screen,12_15_2,2023-01-03T04:24:11.533Z,,,b,,,90,500.11999999999534,timeout,e.jpg,,,331233.5,331148.071,330648.074,330733.5,330664.754,331164.874,
刺激提示,canvas.Screen,12_15_3,2023-01-03T04:24:14.061Z,,,b,false,b,90,2596.0260000000126,response,e.jpg,d,keypress(j),333761.4,333760.9,331148.071,331233.6,331164.874,333698.107,
フィードバック(0.5秒),canvas.Screen,12_15_4,2023-01-03T04:24:14.566Z,,,b,,,90,499.98499999998603,timeout,e.jpg,,,334266.9,334181.344,333681.324,333768.30000000005,333698.107,334198.092,
トライアル,flow.Sequence,12_15,2023-01-03T04:24:14.566Z,,,b,,,90,5016.42300000001,completion,e.jpg,,,334267,334181.344,329148.225,329235.69999999995,329164.921,334198.092,
タスクのセット,flow.Loop,12,2023-01-03T04:24:14.566Z,,,,,,,67731.41499999998,completion,,,,334267.1,334181.344,266433.201,266518.9,266449.929,334198.092,
空白時間1 (0.5秒),canvas.Screen,13_0_0,2023-01-03T04:24:15.066Z,,,d,,,225,499.99599999998463,timeout,eR.jpg,,,334766.9,334681.309,334181.344,334267.19999999995,334198.092,334698.088,
注視(1秒),canvas.Screen,13_0_1,2023-01-03T04:24:16.066Z,,,d,,,225,999.9230000000098,timeout,eR.jpg,,,335766.80000000005,335681.357,334681.309,334767,334698.088,335698.011,
空白時間2 (0.5秒),canvas.Screen,13_0_2,2023-01-03T04:24:16.567Z,,,d,,,225,500.00699999998324,timeout,eR.jpg,,,336267.4,336181.467,335681.357,335766.80000000005,335698.011,336198.018,
刺激提示,canvas.Screen,13_0_3,2023-01-03T04:24:18.785Z,,,d,true,d,225,2287.1819999999716,response,eR.jpg,d,keypress(j),338485.69999999995,338485.19999999995,336181.467,336267.6,336198.018,338414.563,
フィードバック(0.5秒),canvas.Screen,13_0_4,2023-01-03T04:24:19.283Z,,,d,,,225,500.0809999999474,timeout,eR.jpg,,,338983.5,338897.951,338397.872,338493.9,338414.563,338914.644,
トライアル,flow.Sequence,13_0,2023-01-03T04:24:19.283Z,,,d,,,225,4699.858999999997,completion,eR.jpg,,,338983.6,338897.951,334181.344,334267.19999999995,334198.092,338914.644,
空白時間1 (0.5秒),canvas.Screen,13_1_0,2023-01-03T04:24:19.783Z,,,b,,,315,499.8950000000186,timeout,e.jpg,,,339483.4,339397.934,338897.951,338983.6,338914.644,339414.539,
注視(1秒),canvas.Screen,13_1_1,2023-01-03T04:24:20.783Z,,,b,,,315,1000.0520000000251,timeout,e.jpg,,,340483.4,340397.91,339397.934,339483.4,339414.539,340414.591,
空白時間2 (0.5秒),canvas.Screen,13_1_2,2023-01-03T04:24:21.283Z,,,b,,,315,499.9890000000014,timeout,e.jpg,,,340983.30000000005,340897.887,340397.91,340483.5,340414.591,340914.58,
刺激提示,canvas.Screen,13_1_3,2023-01-03T04:24:22.296Z,,,b,true,b,315,1081.0199999999604,response,e.jpg,b,keypress(f),341996.19999999995,341995.6,340897.887,340983.5,340914.58,341931.196,
フィードバック(0.5秒),canvas.Screen,13_1_4,2023-01-03T04:24:22.799Z,,,b,,,315,499.88000000000466,timeout,e.jpg,,,342499.80000000005,342414.423,341914.52,342003.9,341931.196,342431.076,
トライアル,flow.Sequence,13_1,2023-01-03T04:24:22.799Z,,,b,,,315,3499.7790000000386,completion,e.jpg,,,342499.9,342414.423,338897.951,338983.6,338914.644,342431.076,
空白時間1 (0.5秒),canvas.Screen,13_2_0,2023-01-03T04:24:23.299Z,,,d,,,315,500.0229999999865,timeout,eR.jpg,,,343000,342914.427,342414.423,342499.9,342431.076,342931.099,
注視(1秒),canvas.Screen,13_2_1,2023-01-03T04:24:24.299Z,,,d,,,315,1000.0439999999944,timeout,eR.jpg,,,343999.9,343914.482,342914.427,343000.1,342931.099,343931.143,
空白時間2 (0.5秒),canvas.Screen,13_2_2,2023-01-03T04:24:24.799Z,,,d,,,315,499.8969999999972,timeout,eR.jpg,,,344499.9,344414.372,343914.482,344000,343931.143,344431.04,
刺激提示,canvas.Screen,13_2_3,2023-01-03T04:24:25.708Z,,,d,true,d,315,977.2600000000675,response,eR.jpg,d,keypress(j),345408.9,345408.30000000005,344414.372,344500,344431.04,345347.713,
フィードバック(0.5秒),canvas.Screen,13_2_4,2023-01-03T04:24:26.216Z,,,d,,,315,500.0360000000219,timeout,eR.jpg,,,345916.5,345831.062,345331.075,345417.4,345347.713,345847.749,
トライアル,flow.Sequence,13_2,2023-01-03T04:24:26.216Z,,,d,,,315,3399.9859999999753,completion,eR.jpg,,,345916.69999999995,345831.062,342414.423,342499.9,342431.076,345847.749,
空白時間1 (0.5秒),canvas.Screen,13_3_0,2023-01-03T04:24:26.716Z,,,d,,,90,499.99099999998,timeout,eR.jpg,,,346416.6,346331.046,345831.062,345916.80000000005,345847.749,346347.74,
注視(1秒),canvas.Screen,13_3_1,2023-01-03T04:24:27.716Z,,,d,,,90,999.9799999999814,timeout,eR.jpg,,,347416.80000000005,347331.104,346331.046,346416.6,346347.74,347347.72,
空白時間2 (0.5秒),canvas.Screen,13_3_2,2023-01-03T04:24:28.216Z,,,d,,,90,499.9770000000135,timeout,eR.jpg,,,347916.4,347831.025,347331.104,347416.9,347347.72,347847.697,
刺激提示,canvas.Screen,13_3_3,2023-01-03T04:24:29.938Z,,,d,false,d,90,1790.0029999999679,response,eR.jpg,b,keypress(f),349638.5,349637.69999999995,347831.025,347916.5,347847.697,349564.3,
フィードバック(0.5秒),canvas.Screen,13_3_4,2023-01-03T04:24:30.432Z,,,d,,,90,500.04200000001583,timeout,eR.jpg,,,350133.1,350047.554,349547.614,349646,349564.3,350064.342,
トライアル,flow.Sequence,13_3,2023-01-03T04:24:30.432Z,,,d,,,90,4199.804999999993,completion,eR.jpg,,,350133.19999999995,350047.554,345831.062,345916.69999999995,345847.749,350064.342,
空白時間1 (0.5秒),canvas.Screen,13_4_0,2023-01-03T04:24:30.932Z,,,b,,,45,499.9789999999921,timeout,e.jpg,,,350633,350547.63,350047.554,350133.4,350064.342,350564.321,
注視(1秒),canvas.Screen,13_4_1,2023-01-03T04:24:31.934Z,,,b,,,45,999.9100000000326,timeout,e.jpg,,,351634.30000000005,351547.692,350547.63,350633.19999999995,350564.321,351564.231,
空白時間2 (0.5秒),canvas.Screen,13_4_2,2023-01-03T04:24:32.432Z,,,b,,,45,499.9779999999446,timeout,e.jpg,,,352133.1,352047.548,351547.692,351634.69999999995,351564.231,352064.209,
刺激提示,canvas.Screen,13_4_3,2023-01-03T04:24:35.020Z,,,b,true,b,45,2656.591000000073,response,e.jpg,b,keypress(f),354721.19999999995,354720.80000000005,352047.548,352133.1,352064.209,354647.472,
フィードバック(0.5秒),canvas.Screen,13_4_4,2023-01-03T04:24:35.515Z,,,b,,,45,500.02999999996973,timeout,e.jpg,,,355216.19999999995,355130.708,354630.821,354727.5,354647.472,355147.502,
トライアル,flow.Sequence,13_4,2023-01-03T04:24:35.515Z,,,b,,,45,5066.36599999998,completion,e.jpg,,,355216.19999999995,355130.708,350047.554,350133.4,350064.342,355147.502,
空白時間1 (0.5秒),canvas.Screen,13_5_0,2023-01-03T04:24:36.016Z,,,b,,,270,499.969000000041,timeout,e.jpg,,,355716.30000000005,355630.79,355130.708,355216.30000000005,355147.502,355647.471,
注視(1秒),canvas.Screen,13_5_1,2023-01-03T04:24:37.016Z,,,b,,,270,999.9349999999977,timeout,e.jpg,,,356716.30000000005,356630.757,355630.79,355716.5,355647.471,356647.406,
空白時間2 (0.5秒),canvas.Screen,13_5_2,2023-01-03T04:24:37.515Z,,,b,,,270,500.01799999998184,timeout,e.jpg,,,357216.19999999995,357130.696,356630.757,356716.5,356647.406,357147.424,
刺激提示,canvas.Screen,13_5_3,2023-01-03T04:24:42.045Z,,,b,false,b,270,4597.476000000024,response,e.jpg,d,keypress(j),361745.5,361744.9,357130.696,357216.30000000005,357147.424,361680.665,
フィードバック(0.5秒),canvas.Screen,13_5_4,2023-01-03T04:24:42.549Z,,,b,,,270,499.96300000004703,timeout,e.jpg,,,362249.6,362164.156,361663.848,361754.4,361680.665,362180.628,
トライアル,flow.Sequence,13_5,2023-01-03T04:24:42.549Z,,,b,,,270,7016.654000000039,completion,e.jpg,,,362249.80000000005,362164.156,355130.708,355216.30000000005,355147.502,362180.628,
空白時間1 (0.5秒),canvas.Screen,13_6_0,2023-01-03T04:24:43.049Z,,,d,,,270,499.97299999999814,timeout,eR.jpg,,,362749.30000000005,362663.931,362164.156,362249.9,362180.628,362680.601,
注視(1秒),canvas.Screen,13_6_1,2023-01-03T04:24:44.049Z,,,d,,,270,999.9809999999707,timeout,eR.jpg,,,363749.69999999995,363663.942,362663.931,362749.4,362680.601,363680.582,
空白時間2 (0.5秒),canvas.Screen,13_6_2,2023-01-03T04:24:44.549Z,,,d,,,270,499.9880000000121,timeout,eR.jpg,,,364249.30000000005,364163.826,363663.942,363749.69999999995,363680.582,364180.57,
刺激提示,canvas.Screen,13_6_3,2023-01-03T04:24:46.836Z,,,d,true,d,270,2355.7300000000396,response,eR.jpg,d,keypress(j),366536.80000000005,366536.30000000005,364163.826,364249.4,364180.57,366463.787,
フィードバック(0.5秒),canvas.Screen,13_6_4,2023-01-03T04:24:47.332Z,,,d,,,270,500.0579999999609,timeout,eR.jpg,,,367032.6,366947.106,366447.408,366544.4,366463.787,366963.845,
トライアル,flow.Sequence,13_6,2023-01-03T04:24:47.332Z,,,d,,,270,4766.478000000003,completion,eR.jpg,,,367032.80000000005,366947.106,362164.156,362249.9,362180.628,366963.845,
空白時間1 (0.5秒),canvas.Screen,13_7_0,2023-01-03T04:24:47.832Z,,,b,,,225,499.9340000000084,timeout,e.jpg,,,367532.6,367447.164,366947.106,367032.80000000005,366963.845,367463.779,
注視(1秒),canvas.Screen,13_7_1,2023-01-03T04:24:48.832Z,,,b,,,225,999.9380000000237,timeout,e.jpg,,,368532.80000000005,368447.134,367447.164,367532.6,367463.779,368463.717,
空白時間2 (0.5秒),canvas.Screen,13_7_2,2023-01-03T04:24:49.332Z,,,b,,,225,500.0929999999935,timeout,e.jpg,,,369032.80000000005,368947.109,368447.134,368532.9,368463.717,368963.81,
刺激提示,canvas.Screen,13_7_3,2023-01-03T04:24:52.045Z,,,b,false,b,225,2780.990000000049,response,e.jpg,d,keypress(j),371745.5,371744.80000000005,368947.109,369033,368963.81,371680.396,
フィードバック(0.5秒),canvas.Screen,13_7_4,2023-01-03T04:24:52.548Z,,,b,,,225,499.9899999999907,timeout,e.jpg,,,372249.19999999995,372163.699,371663.688,371754.1,371680.396,372180.386,
トライアル,flow.Sequence,13_7,2023-01-03T04:24:52.549Z,,,b,,,225,5199.85400000005,completion,e.jpg,,,372249.30000000005,372163.699,366947.106,367032.80000000005,366963.845,372180.386,
空白時間1 (0.5秒),canvas.Screen,13_8_0,2023-01-03T04:24:53.048Z,,,b,,,90,499.95100000000093,timeout,e.jpg,,,372749,372663.592,372163.699,372249.4,372180.386,372680.337,
注視(1秒),canvas.Screen,13_8_1,2023-01-03T04:24:54.048Z,,,b,,,90,999.9890000000014,timeout,e.jpg,,,373749,373663.566,372663.592,372749.1,372680.337,373680.326,
空白時間2 (0.5秒),canvas.Screen,13_8_2,2023-01-03T04:24:54.548Z,,,b,,,90,499.9230000000098,timeout,e.jpg,,,374249.1,374163.607,373663.566,373749.1,373680.326,374180.249,
刺激提示,canvas.Screen,13_8_3,2023-01-03T04:24:59.038Z,,,b,true,b,90,4557.551000000036,response,e.jpg,b,keypress(f),378738.30000000005,378737.80000000005,374163.607,374249.1,374180.249,378680.99,
フィードバック(0.5秒),canvas.Screen,13_8_4,2023-01-03T04:24:59.548Z,,,b,,,90,499.10999999998603,timeout,e.jpg,,,379248.80000000005,379163.418,378646.729,378747,378680.99,379180.1,
トライアル,flow.Sequence,13_8,2023-01-03T04:24:59.548Z,,,b,,,90,6983.0320000000065,completion,e.jpg,,,379249,379163.418,372163.699,372249.4,372180.386,379180.1,
空白時間1 (0.5秒),canvas.Screen,13_9_0,2023-01-03T04:25:00.048Z,,,d,,,135,500.524000000034,timeout,eR.jpg,,,379749.1,379663.383,379163.418,379249,379180.1,379680.624,
注視(1秒),canvas.Screen,13_9_1,2023-01-03T04:25:01.048Z,,,d,,,135,999.539999999979,timeout,eR.jpg,,,380749,380663.47,379663.383,379749.1,379680.624,380680.164,
空白時間2 (0.5秒),canvas.Screen,13_9_2,2023-01-03T04:25:01.548Z,,,d,,,135,499.9899999999907,timeout,eR.jpg,,,381248.9,381163.451,380663.47,380749.1,380680.164,381180.154,
刺激提示,canvas.Screen,13_9_3,2023-01-03T04:25:04.012Z,,,d,true,d,135,2531.646000000066,response,eR.jpg,d,keypress(j),383712.30000000005,383711.80000000005,381163.451,381249,381180.154,383646.778,
フィードバック(0.5秒),canvas.Screen,13_9_4,2023-01-03T04:25:04.515Z,,,d,,,135,499.875,timeout,eR.jpg,,,384215.30000000005,384129.942,383630.022,383720.19999999995,383646.778,384146.653,
トライアル,flow.Sequence,13_9,2023-01-03T04:25:04.515Z,,,d,,,135,4949.842000000004,completion,eR.jpg,,,384215.5,384129.942,379163.418,379249,379180.1,384146.653,
空白時間1 (0.5秒),canvas.Screen,13_10_0,2023-01-03T04:25:05.015Z,,,d,,,0,499.95900000003166,timeout,eR.jpg,,,384715.30000000005,384629.919,384129.942,384215.5,384146.653,384646.612,
注視(1秒),canvas.Screen,13_10_1,2023-01-03T04:25:06.015Z,,,d,,,0,1000.0380000000005,timeout,eR.jpg,,,385715.5,385629.982,384629.919,384715.5,384646.612,385646.65,
空白時間2 (0.5秒),canvas.Screen,13_10_2,2023-01-03T04:25:06.515Z,,,d,,,0,499.90099999995437,timeout,eR.jpg,,,386215.4,386129.907,385629.982,385715.6,385646.65,386146.551,
刺激提示,canvas.Screen,13_10_3,2023-01-03T04:25:08.368Z,,,d,true,d,0,1921.4490000000224,response,eR.jpg,d,keypress(j),388068.5,388068,386129.907,386215.5,386146.551,387996.523,
フィードバック(0.5秒),canvas.Screen,13_10_4,2023-01-03T04:25:08.865Z,,,d,,,0,500.00500000000466,timeout,eR.jpg,,,388565.30000000005,388479.876,387979.807,388078.30000000005,387996.523,388496.528,
トライアル,flow.Sequence,13_10,2023-01-03T04:25:08.865Z,,,d,,,0,4333.222999999998,completion,eR.jpg,,,388565.6,388479.876,384129.942,384215.5,384146.653,388496.528,
空白時間1 (0.5秒),canvas.Screen,13_11_0,2023-01-03T04:25:09.364Z,,,b,,,180,499.9629999999888,timeout,e.jpg,,,389065.30000000005,388979.784,388479.876,388565.6,388496.528,388996.491,
注視(1秒),canvas.Screen,13_11_1,2023-01-03T04:25:10.365Z,,,b,,,180,1000.0109999999986,timeout,e.jpg,,,390065.30000000005,389979.855,388979.784,389065.30000000005,388996.491,389996.502,
空白時間2 (0.5秒),canvas.Screen,13_11_2,2023-01-03T04:25:10.865Z,,,b,,,180,500.03900000004796,timeout,e.jpg,,,390565.4,390479.857,389979.855,390065.4,389996.502,390496.541,
刺激提示,canvas.Screen,13_11_3,2023-01-03T04:25:13.852Z,,,b,false,b,180,3056.158999999927,response,e.jpg,d,keypress(j),393553.19999999995,393552.69999999995,390479.857,390565.5,390496.541,393497.212,
フィードバック(0.5秒),canvas.Screen,13_11_4,2023-01-03T04:25:14.365Z,,,b,,,180,499.204000000027,timeout,e.jpg,,,394065.4,393979.781,393463.079,393563.6,393497.212,393996.416,
トライアル,flow.Sequence,13_11,2023-01-03T04:25:14.365Z,,,b,,,180,5483.253000000026,completion,e.jpg,,,394065.69999999995,393979.781,388479.876,388565.6,388496.528,393996.416,
空白時間1 (0.5秒),canvas.Screen,13_12_0,2023-01-03T04:25:14.865Z,,,b,,,135,499.905999999959,timeout,e.jpg,,,394565.30000000005,394479.71,393979.781,394065.80000000005,393996.416,394496.322,
注視(1秒),canvas.Screen,13_12_1,2023-01-03T04:25:15.865Z,,,b,,,135,1000.0380000000005,timeout,e.jpg,,,395565.30000000005,395479.661,394479.71,394565.4,394496.322,395496.36,
空白時間2 (0.5秒),canvas.Screen,13_12_2,2023-01-03T04:25:16.364Z,,,b,,,135,500.0260000000126,timeout,e.jpg,,,396065.19999999995,395979.719,395479.661,395565.4,395496.36,395996.386,
刺激提示,canvas.Screen,13_12_3,2023-01-03T04:25:17.899Z,,,b,true,b,135,1602.5140000000247,response,e.jpg,b,keypress(f),397599.4,397598.9,395979.719,396065.30000000005,395996.386,397529.689,
フィードバック(0.5秒),canvas.Screen,13_12_4,2023-01-03T04:25:18.398Z,,,b,,,135,499.96199999999953,timeout,e.jpg,,,398098.4,398012.973,397512.988,397608.19999999995,397529.689,398029.651,
トライアル,flow.Sequence,13_12,2023-01-03T04:25:18.398Z,,,b,,,135,4016.5569999999716,completion,e.jpg,,,398098.5,398012.973,393979.781,394065.69999999995,393996.416,398029.651,
空白時間1 (0.5秒),canvas.Screen,13_13_0,2023-01-03T04:25:18.898Z,,,d,,,45,500.21100000001024,timeout,eR.jpg,,,398598.4,398512.977,398012.973,398098.5,398029.651,398529.862,
注視(1秒),canvas.Screen,13_13_1,2023-01-03T04:25:19.898Z,,,d,,,45,999.7689999999711,timeout,eR.jpg,,,399598.30000000005,399512.921,398512.977,398598.6,398529.862,399529.631,
空白時間2 (0.5秒),canvas.Screen,13_13_2,2023-01-03T04:25:20.398Z,,,d,,,45,500,timeout,eR.jpg,,,400098.9,400013.154,399512.921,399598.4,399529.631,400029.631,
刺激提示,canvas.Screen,13_13_3,2023-01-03T04:25:21.338Z,,,d,true,d,45,1008.869000000006,response,eR.jpg,d,keypress(j),401039.19999999995,401038.5,400013.154,400099,400029.631,400979.498,
フィードバック(0.5秒),canvas.Screen,13_13_4,2023-01-03T04:25:21.848Z,,,d,,,45,500.00599999999395,timeout,eR.jpg,,,401548.9,401463.356,400946.199,401046.80000000005,400979.498,401479.504,
トライアル,flow.Sequence,13_13,2023-01-03T04:25:21.848Z,,,d,,,45,3433.7050000000163,completion,eR.jpg,,,401549.1,401463.356,398012.973,398098.5,398029.651,401479.504,
空白時間1 (0.5秒),canvas.Screen,13_14_0,2023-01-03T04:25:22.348Z,,,d,,,180,499.9670000000042,timeout,eR.jpg,,,402048.30000000005,401962.882,401463.356,401549.30000000005,401479.504,401979.471,
注視(1秒),canvas.Screen,13_14_1,2023-01-03T04:25:23.348Z,,,d,,,180,1000.0629999999655,timeout,eR.jpg,,,403048.4,402962.856,401962.882,402048.5,401979.471,402979.534,
空白時間2 (0.5秒),canvas.Screen,13_14_2,2023-01-03T04:25:23.848Z,,,d,,,180,499.99600000004284,timeout,eR.jpg,,,403548.69999999995,403462.873,402962.856,403048.4,402979.534,403479.53,
刺激提示,canvas.Screen,13_14_3,2023-01-03T04:25:26.099Z,,,d,false,d,180,2318.8699999999953,response,eR.jpg,b,keypress(f),405799,405798.4,403462.873,403548.80000000005,403479.53,405729.378,
フィードバック(0.5秒),canvas.Screen,13_14_4,2023-01-03T04:25:26.598Z,,,d,,,180,500.0329999999958,timeout,eR.jpg,,,406298.30000000005,406212.741,405712.752,405807.6,405729.378,406229.411,
トライアル,flow.Sequence,13_14,2023-01-03T04:25:26.598Z,,,d,,,180,4733.236999999965,completion,eR.jpg,,,406298.4,406212.741,401463.356,401549.30000000005,401479.504,406229.411,
空白時間1 (0.5秒),canvas.Screen,13_15_0,2023-01-03T04:25:27.098Z,,,b,,,0,500.04099999996834,timeout,e.jpg,,,406798.69999999995,406712.765,406212.741,406298.5,406229.411,406729.452,
注視(1秒),canvas.Screen,13_15_1,2023-01-03T04:25:28.098Z,,,b,,,0,999.8950000000186,timeout,e.jpg,,,407798.1,407712.721,406712.765,406798.80000000005,406729.452,407729.347,
空白時間2 (0.5秒),canvas.Screen,13_15_2,2023-01-03T04:25:28.598Z,,,b,,,0,499.95100000000093,timeout,e.jpg,,,408298.19999999995,408212.713,407712.721,407798.19999999995,407729.347,408229.298,
刺激提示,canvas.Screen,13_15_3,2023-01-03T04:25:29.730Z,,,b,true,b,0,1200.4019999999437,response,e.jpg,b,keypress(f),409430.1,409429.69999999995,408212.713,408298.4,408229.298,409362.668,
フィードバック(0.5秒),canvas.Screen,13_15_4,2023-01-03T04:25:30.231Z,,,b,,,0,500.00500000000466,timeout,e.jpg,,,409931.4,409846.012,409345.902,409436.30000000005,409362.668,409862.673,
トライアル,flow.Sequence,13_15,2023-01-03T04:25:30.231Z,,,b,,,0,3616.600999999966,completion,e.jpg,,,409931.69999999995,409846.012,406212.741,406298.5,406229.411,409862.673,
タスクのセット,flow.Loop,13,2023-01-03T04:25:30.231Z,,,,,,,75647.91999999998,completion,,,,409931.69999999995,409846.012,334181.344,334267.1,334198.092,409862.673,
休憩,canvas.Screen,14,2023-01-03T04:26:30.230Z,,,,,,,59998.236999999965,timeout,,,,469930.4,469844.358,409846.012,409931.80000000005,409862.673,469860.91,
休憩終了,html.Page,15,2023-01-03T04:26:34.278Z,,,,,,,4117.390000000072,form submission,,,,473978.4,473978.30000000005,469844.358,469930.5,469860.91,473894.195,
イントロ2,html.Page,16,2023-01-03T04:26:39.681Z,,,,,,,5486.804999999993,form submission,,,,479381.19999999995,479381,473877.717,473978.6,473894.195,479310.683,
イントロ3,html.Page,17,2023-01-03T04:26:52.556Z,,,,,,,12946.117000000027,form submission,,,,492257,492256.80000000005,479294.092,479381.30000000005,479310.683,492177.082,
イントロ4,html.Page,18,2023-01-03T04:27:04.268Z,,,,,,,11791.718000000052,form submission,,,,503968.9,503968.80000000005,492160.382,492257,492177.082,503893.364,
イントロ5,html.Page,19,2023-01-03T04:27:07.462Z,,,,,,,3269.6359999999986,form submission,,,,507163.1,507163,503876.716,503969,503893.364,507093.271,
できるだけ早く正確に,canvas.Screen,20,2023-01-03T04:27:08.461Z,,,,,,,1000.00900000002,timeout,,,,508162.1,508076.609,507076.64,507163.30000000005,507093.271,508093.28,
空白時間1 (0.5秒),canvas.Screen,21_0_0,2023-01-03T04:27:08.961Z,,,b,,,180,500.12099999998463,timeout,2.jpg,,,508662.19999999995,508576.556,508076.609,508162.30000000005,508093.28,508593.401,
注視(1秒),canvas.Screen,21_0_1,2023-01-03T04:27:09.961Z,,,b,,,180,999.7509999999893,timeout,2.jpg,,,509662,509576.578,508576.556,508662.19999999995,508593.401,509593.152,
空白時間2 (0.5秒),canvas.Screen,21_0_2,2023-01-03T04:27:10.461Z,,,b,,,180,500.14100000000326,timeout,2.jpg,,,510162,510076.623,509576.578,509662.1,509593.152,510093.293,
刺激提示(練習),canvas.Screen,21_0_3,2023-01-03T04:27:11.634Z,,,b,true,b,180,1241.0070000000414,response,2.jpg,b,keypress(f),511335,511334.30000000005,510076.623,510162.19999999995,510093.293,511259.813,
フィードバック(0.5秒),canvas.Screen,21_0_4,2023-01-03T04:27:12.128Z,,,b,,,180,499.98199999995995,timeout,2.jpg,,,511828.9,511743.206,511243.21,511344.1,511259.813,511759.795,
トライアル,flow.Sequence,21_0,2023-01-03T04:27:12.128Z,,,b,,,180,3649.9259999999776,completion,2.jpg,,,511829.1,511743.206,508076.609,508162.30000000005,508093.28,511759.795,
空白時間1 (0.5秒),canvas.Screen,21_1_0,2023-01-03T04:27:12.628Z,,,d,,,90,500.0100000000093,timeout,2R.jpg,,,512328.6,512243.186,511743.206,511829.1,511759.795,512259.805,
注視(1秒),canvas.Screen,21_1_1,2023-01-03T04:27:13.628Z,,,d,,,90,999.9519999999902,timeout,2R.jpg,,,513328.5,513243.065,512243.186,512328.69999999995,512259.805,513259.757,
空白時間2 (0.5秒),canvas.Screen,21_1_2,2023-01-03T04:27:14.128Z,,,d,,,90,499.97299999999814,timeout,2R.jpg,,,513828.5,513743.055,513243.065,513328.5,513259.757,513759.73,
刺激提示(練習),canvas.Screen,21_1_3,2023-01-03T04:27:15.518Z,,,d,true,d,90,1458.170000000042,response,2R.jpg,d,keypress(j),515218.4,515217.9,513743.055,513828.5,513759.73,515143.035,
フィードバック(0.5秒),canvas.Screen,21_1_4,2023-01-03T04:27:16.011Z,,,d,,,90,499.9920000000275,timeout,2R.jpg,,,515711.9,515626.401,515126.39,515219,515143.035,515643.027,
トライアル,flow.Sequence,21_1,2023-01-03T04:27:16.012Z,,,d,,,90,3866.606000000029,completion,2R.jpg,,,515712.19999999995,515626.401,511743.206,511829.1,511759.795,515643.027,
空白時間1 (0.5秒),canvas.Screen,21_2_0,2023-01-03T04:27:16.511Z,,,b,,,45,500.1049999999814,timeout,2.jpg,,,516211.9,516126.388,515626.401,515712.30000000005,515643.027,516143.132,
注視(1秒),canvas.Screen,21_2_1,2023-01-03T04:27:17.514Z,,,b,,,45,999.8360000000102,timeout,2.jpg,,,517214.5,517126.387,516126.388,516212,516143.132,517142.968,
空白時間2 (0.5秒),canvas.Screen,21_2_2,2023-01-03T04:27:18.011Z,,,b,,,45,500.08299999998417,timeout,2.jpg,,,517712.1,517626.429,517126.387,517214.6,517142.968,517643.051,
刺激提示(練習),canvas.Screen,21_2_3,2023-01-03T04:27:18.986Z,,,b,true,b,45,1042.8490000000456,response,2.jpg,b,keypress(f),518686.4,518685.9,517626.429,517712.30000000005,517643.051,518627.076,
フィードバック(0.5秒),canvas.Screen,21_2_4,2023-01-03T04:27:19.494Z,,,b,,,45,499.2380000000121,timeout,2.jpg,,,519195,519109.543,518592.998,518693,518627.076,519126.314,
トライアル,flow.Sequence,21_2,2023-01-03T04:27:19.494Z,,,b,,,45,3466.5160000000033,completion,2.jpg,,,519195,519109.543,515626.401,515712.19999999995,515643.027,519126.314,
空白時間1 (0.5秒),canvas.Screen,21_3_0,2023-01-03T04:27:19.994Z,,,d,,,225,500.0320000000065,timeout,2R.jpg,,,519695.1,519609.557,519109.543,519195.19999999995,519126.314,519626.346,
注視(1秒),canvas.Screen,21_3_1,2023-01-03T04:27:20.994Z,,,d,,,225,999.960999999952,timeout,2R.jpg,,,520695.1,520609.625,519609.557,519695.19999999995,519626.346,520626.307,
空白時間2 (0.5秒),canvas.Screen,21_3_2,2023-01-03T04:27:21.494Z,,,d,,,225,499.8880000000354,timeout,2R.jpg,,,521195.1,521109.525,520609.625,520695.19999999995,520626.307,521126.195,
刺激提示(練習),canvas.Screen,21_3_3,2023-01-03T04:27:22.780Z,,,d,true,d,225,1353.804999999993,response,2R.jpg,d,keypress(j),522480.5,522480,521109.525,521195.30000000005,521126.195,522409.517,
フィードバック(0.5秒),canvas.Screen,21_3_4,2023-01-03T04:27:23.278Z,,,d,,,225,500.0219999999972,timeout,2R.jpg,,,522978.5,522892.861,522392.792,522490.1,522409.517,522909.539,
トライアル,flow.Sequence,21_3,2023-01-03T04:27:23.278Z,,,d,,,225,3766.5469999999623,completion,2R.jpg,,,522978.6,522892.861,519109.543,519195.1,519126.314,522909.539,
練習試行(2),flow.Loop,21,2023-01-03T04:27:23.278Z,,,,,,,14799.580999999947,completion,,,,522978.80000000005,522892.861,508076.609,508162.19999999995,508093.28,522909.539,
イントロ6,html.Page,22,2023-01-03T04:27:27.857Z,,,,,,,4647.46100000001,form submission,,,,527557.2,527557,522892.861,522978.80000000005,522909.539,527476.065,
できるだけ早く正確に,canvas.Screen,23,2023-01-03T04:27:28.844Z,,,,,,,1000.0460000000894,timeout,,,,528544.8,528459.414,527459.449,527557.3,527476.065,528476.111,
空白時間1 (0.5秒),canvas.Screen,24_0_0,2023-01-03T04:27:29.344Z,,,d,,,0,499.98099999991246,timeout,2R.jpg,,,529045,528959.41,528459.414,528545,528476.111,528976.092,
注視(1秒),canvas.Screen,24_0_1,2023-01-03T04:27:30.344Z,,,d,,,0,999.954000000027,timeout,2R.jpg,,,530044.8,529959.374,528959.41,529045.1,528976.092,529976.046,
空白時間2 (0.5秒),canvas.Screen,24_0_2,2023-01-03T04:27:30.844Z,,,d,,,0,499.9550000000745,timeout,2R.jpg,,,530544.8,530459.333,529959.374,530044.9,529976.046,530476.001,
刺激提示,canvas.Screen,24_0_3,2023-01-03T04:27:31.840Z,,,d,true,d,0,1063.9989999999525,response,2R.jpg,d,keypress(j),531540.6,531540,530459.333,530544.9,530476.001,531459.318,
フィードバック(0.5秒),canvas.Screen,24_0_4,2023-01-03T04:27:32.327Z,,,d,,,0,500.0339999999851,timeout,2R.jpg,,,532028,531942.578,531442.654,531549.8,531459.318,531959.352,
トライアル,flow.Sequence,24_0,2023-01-03T04:27:32.328Z,,,d,,,0,3466.466999999946,completion,2R.jpg,,,532028.2,531942.578,528459.414,528545,528476.111,531959.352,
空白時間1 (0.5秒),canvas.Screen,24_1_0,2023-01-03T04:27:32.827Z,,,d,,,45,499.969000000041,timeout,2R.jpg,,,532528.1,532442.624,531942.578,532028.3,531959.352,532459.321,
注視(1秒),canvas.Screen,24_1_1,2023-01-03T04:27:33.827Z,,,d,,,45,999.9239999999991,timeout,2R.jpg,,,533528,533442.607,532442.624,532528.2,532459.321,533459.245,
空白時間2 (0.5秒),canvas.Screen,24_1_2,2023-01-03T04:27:34.327Z,,,d,,,45,500.0320000000065,timeout,2R.jpg,,,534028,533942.583,533442.607,533528.1,533459.245,533959.277,
刺激提示,canvas.Screen,24_1_3,2023-01-03T04:27:35.731Z,,,d,false,d,45,1472.2229999999981,response,2R.jpg,b,keypress(f),535432.1,535431.5,533942.583,534028.2,533959.277,535359.17,
フィードバック(0.5秒),canvas.Screen,24_1_4,2023-01-03T04:27:36.229Z,,,d,,,45,500.01899999997113,timeout,2R.jpg,,,535929.7,535842.484,535342.531,535441,535359.17,535859.189,
トライアル,flow.Sequence,24_1,2023-01-03T04:27:36.229Z,,,d,,,45,3883.1320000000997,completion,2R.jpg,,,535929.8,535842.484,531942.578,532028.3,531959.352,535859.189,
空白時間1 (0.5秒),canvas.Screen,24_2_0,2023-01-03T04:27:36.727Z,,,b,,,0,500.01899999997113,timeout,2.jpg,,,536427.9,536342.513,535842.484,535929.9,535859.189,536359.208,
注視(1秒),canvas.Screen,24_2_1,2023-01-03T04:27:37.727Z,,,b,,,0,999.9470000000438,timeout,2.jpg,,,537428,537342.471,536342.513,536428,536359.208,537359.155,
空白時間2 (0.5秒),canvas.Screen,24_2_2,2023-01-03T04:27:38.228Z,,,b,,,0,499.9070000000065,timeout,2.jpg,,,537928.2,537842.397,537342.471,537428.1,537359.155,537859.062,
刺激提示,canvas.Screen,24_2_3,2023-01-03T04:27:39.800Z,,,b,true,b,0,1641.4379999999655,response,2.jpg,b,keypress(f),539501,539500.5,537842.397,537928.3,537859.062,539425.743,
フィードバック(0.5秒),canvas.Screen,24_2_4,2023-01-03T04:27:40.294Z,,,b,,,0,500.0439999999944,timeout,2.jpg,,,539994.7,539909.088,539409.063,539506.8,539425.743,539925.787,
