sender,sender_type,sender_id,timestamp,meta,,answer,correct,correctResponse,deg,duration,ended_on,image,response,response_action,time_commit,time_end,time_render,time_run,time_show,time_switch,url
イントロ1,html.Page,0,2023-01-06T03:30:57.106Z,"{""labjs_version"":""20.2.4"",""labjs_build"":{""flavor"":""development"",""commit"":""f5b4a49f956347addd546a832a3327688c2c0fef""},""location"":""https://labjs.felixhenninger.com/api/labjs_preview/index.html"",""userAgent"":""Mozilla/5.0 (Macintosh; Intel Mac OS X 10_15_7) AppleWebKit/605.1.15 (KHTML, like Gecko) Version/15.6 Safari/605.1.15"",""platform"":""MacIntel"",""language"":""ja"",""locale"":""ja"",""timeZone"":""Asia/Tokyo"",""timezoneOffset"":-540,""screen_width"":1440,""screen_height"":900,""scroll_width"":914,""scroll_height"":714,""window_innerWidth"":914,""window_innerHeight"":762,""devicePixelRatio"":2}",,,,,,34621,form submission,,,,35859,35850,1202,1154,1229,35912,{}
イントロ2,html.Page,1,2023-01-06T03:31:12.324Z,,,,,,,15165,form submission,,,,51077,51077,35879,35861.00000000001,35912,51128,
イントロ3,html.Page,2,2023-01-06T03:31:27.830Z,,,,,,,15454.000000000015,form submission,,,,66583,66582.00000000001,51094,51078,51128,66627,
イントロ4,html.Page,3,2023-01-06T03:31:44.189Z,,,,,,,16315,form submission,,,,82942,82942,66595,66583,66627,82994,
イントロ5,html.Page,4,2023-01-06T03:31:56.275Z,,,,,,,12033,form submission,,,,95028,95027,82960,82942,82994,95092,
できるだけ早く正確に,canvas.Screen,5,2023-01-06T03:31:57.292Z,,,,,,,985,timeout,,,,96045,96044,95048,95028,95092,96077,
空白時間1 (0.5秒),canvas.Screen,6_0_0,2023-01-06T03:31:57.792Z,,,b,,,270,501,timeout,e.jpg,,,96544,96543,96044,96045,96077,96578,
注視(1秒),canvas.Screen,6_0_1,2023-01-06T03:31:58.775Z,,,b,,,270,982,timeout,e.jpg,,,97528,97527,96543,96544,96578,97560,
空白時間2 (0.5秒),canvas.Screen,6_0_2,2023-01-06T03:31:59.276Z,,,b,,,270,501,timeout,e.jpg,,,98028,98028,97527,97528,97560,98061,
刺激提示(練習),canvas.Screen,6_0_3,2023-01-06T03:32:00.502Z,,,b,true,b,270,1158,response,e.jpg,b,keypress(f),99254,99186,98028,98028,98061,99310,
フィードバック(0.5秒),canvas.Screen,6_0_4,2023-01-06T03:32:01.025Z,,,b,,,270,501,timeout,e.jpg,,,99777,99777,99277,99256,99310,99811,
トライアル,flow.Sequence,6_0,2023-01-06T03:32:01.025Z,,,b,,,270,3700,completion,e.jpg,,,99778,99777,96044,96045,96077,99811,
空白時間1 (0.5秒),canvas.Screen,6_1_0,2023-01-06T03:32:01.526Z,,,b,,,180,500,timeout,e.jpg,,,100278,100277,99777,99778,99811,100311,
注視(1秒),canvas.Screen,6_1_1,2023-01-06T03:32:02.542Z,,,b,,,180,1016,timeout,e.jpg,,,101294,101294,100277,100278,100311,101327,
空白時間2 (0.5秒),canvas.Screen,6_1_2,2023-01-06T03:32:03.042Z,,,b,,,180,500,timeout,e.jpg,,,101794,101793,101294,101294,101327,101827,
刺激提示(練習),canvas.Screen,6_1_3,2023-01-06T03:32:03.637Z,,,b,false,b,180,584,response,e.jpg,d,keypress(j),102389,102377,101793,101794,101827,102444,
フィードバック(0.5秒),canvas.Screen,6_1_4,2023-01-06T03:32:04.158Z,,,b,,,180,500,timeout,e.jpg,,,102910,102910,102411,102391,102444,102944,
トライアル,flow.Sequence,6_1,2023-01-06T03:32:04.159Z,,,b,,,180,3099,completion,e.jpg,,,102911,102910,99777,99778,99811,102944,
空白時間1 (0.5秒),canvas.Screen,6_2_0,2023-01-06T03:32:04.659Z,,,d,,,135,499,timeout,eR.jpg,,,103411,103410,102910,102911,102944,103443,
注視(1秒),canvas.Screen,6_2_1,2023-01-06T03:32:05.675Z,,,d,,,135,1018,timeout,eR.jpg,,,104427,104427,103410,103411,103443,104461,
空白時間2 (0.5秒),canvas.Screen,6_2_2,2023-01-06T03:32:06.176Z,,,d,,,135,499,timeout,eR.jpg,,,104928,104928,104427,104427,104461,104960,
刺激提示(練習),canvas.Screen,6_2_3,2023-01-06T03:32:07.699Z,,,d,true,d,135,1509,response,eR.jpg,d,keypress(j),106451.00000000001,106437,104928,104929,104960,106493,
フィードバック(0.5秒),canvas.Screen,6_2_4,2023-01-06T03:32:08.208Z,,,d,,,135,500,timeout,eR.jpg,,,106960.00000000001,106960,106460,106452,106493,106993,
トライアル,flow.Sequence,6_2,2023-01-06T03:32:08.208Z,,,d,,,135,4016,completion,eR.jpg,,,106961,106960,102910,102911,102944,106993,
空白時間1 (0.5秒),canvas.Screen,6_3_0,2023-01-06T03:32:08.708Z,,,d,,,315,500,timeout,eR.jpg,,,107460.00000000001,107460,106960,106961,106993,107493,
注視(1秒),canvas.Screen,6_3_1,2023-01-06T03:32:09.692Z,,,d,,,315,984,timeout,eR.jpg,,,108444,108444,107460,107461,107493,108477,
空白時間2 (0.5秒),canvas.Screen,6_3_2,2023-01-06T03:32:10.192Z,,,d,,,315,499,timeout,eR.jpg,,,108944,108943,108444,108444,108477,108976,
刺激提示(練習),canvas.Screen,6_3_3,2023-01-06T03:32:11.333Z,,,d,true,d,315,1131,response,eR.jpg,d,keypress(j),110085.00000000001,110074,108943,108944,108976,110127,
フィードバック(0.5秒),canvas.Screen,6_3_4,2023-01-06T03:32:11.841Z,,,d,,,315,500,timeout,eR.jpg,,,110594.00000000001,110593,110093,110086,110127,110627,
トライアル,flow.Sequence,6_3,2023-01-06T03:32:11.842Z,,,d,,,315,3600,completion,eR.jpg,,,110594.00000000001,110593,106960,106961,106993,110627,
練習試行(e),flow.Loop,6,2023-01-06T03:32:11.842Z,,,,,,,14516,completion,,,,110594.00000000001,110593,96044,96045,96077,110627,
イントロ6,html.Page,7,2023-01-06T03:32:29.568Z,,,,,,,17693,form submission,,,,128320,128320,110593,110594.00000000001,110627,128360,
できるだけ早く正確に,canvas.Screen,8,2023-01-06T03:32:30.559Z,,,,,,,984,timeout,,,,129311,129311,128327,128320,128360,129344,
空白時間1 (0.5秒),canvas.Screen,9_0_0,2023-01-06T03:32:31.058Z,,,b,,,90,500,timeout,e.jpg,,,129810,129810,129311,129312.00000000001,129344,129844,
注視(1秒),canvas.Screen,9_0_1,2023-01-06T03:32:32.075Z,,,b,,,90,1016,timeout,e.jpg,,,130827,130826,129810,129810,129844,130860,
空白時間2 (0.5秒),canvas.Screen,9_0_2,2023-01-06T03:32:32.575Z,,,b,,,90,500,timeout,e.jpg,,,131327,131326,130826,130827,130860,131360,
刺激提示,canvas.Screen,9_0_3,2023-01-06T03:32:33.519Z,,,b,true,b,90,933,response,e.jpg,b,keypress(f),132271.00000000003,132259,131326,131327,131360,132310,
フィードバック(0.5秒),canvas.Screen,9_0_4,2023-01-06T03:32:34.025Z,,,b,,,90,500,timeout,e.jpg,,,132777.00000000003,132776,132276,132272,132310,132810,
トライアル,flow.Sequence,9_0,2023-01-06T03:32:34.025Z,,,b,,,90,3432,completion,e.jpg,,,132777.00000000003,132776,129311,129311,129344,132810,
空白時間1 (0.5秒),canvas.Screen,9_1_0,2023-01-06T03:32:34.525Z,,,d,,,90,500,timeout,eR.jpg,,,133277.00000000003,133277,132776,132777.00000000003,132810,133310,
注視(1秒),canvas.Screen,9_1_1,2023-01-06T03:32:35.541Z,,,d,,,90,1017,timeout,eR.jpg,,,134293,134293,133277,133277.00000000003,133310,134327,
空白時間2 (0.5秒),canvas.Screen,9_1_2,2023-01-06T03:32:36.043Z,,,d,,,90,499,timeout,eR.jpg,,,134794,134794,134293,134293,134327,134826,
刺激提示,canvas.Screen,9_1_3,2023-01-06T03:32:36.910Z,,,d,true,d,90,856,response,eR.jpg,d,keypress(j),135662,135650,134794,134795.00000000003,134826,135710,
フィードバック(0.5秒),canvas.Screen,9_1_4,2023-01-06T03:32:37.425Z,,,d,,,90,500,timeout,eR.jpg,,,136177,136177,135677,135663,135710,136210,
トライアル,flow.Sequence,9_1,2023-01-06T03:32:37.426Z,,,d,,,90,3367,completion,eR.jpg,,,136177,136177,132776,132777.00000000003,132810,136210,
空白時間1 (0.5秒),canvas.Screen,9_2_0,2023-01-06T03:32:37.926Z,,,b,,,135,500,timeout,e.jpg,,,136677,136677,136177,136177,136210,136710,
注視(1秒),canvas.Screen,9_2_1,2023-01-06T03:32:38.909Z,,,b,,,135,983,timeout,e.jpg,,,137661,137660,136677,136677,136710,137693,
空白時間2 (0.5秒),canvas.Screen,9_2_2,2023-01-06T03:32:39.408Z,,,b,,,135,500,timeout,e.jpg,,,138160,138160,137660,137661,137693,138193,
刺激提示,canvas.Screen,9_2_3,2023-01-06T03:32:40.139Z,,,b,true,b,135,719,response,e.jpg,b,keypress(f),138891,138879,138160,138160,138193,138943,
フィードバック(0.5秒),canvas.Screen,9_2_4,2023-01-06T03:32:40.659Z,,,b,,,135,501,timeout,e.jpg,,,139410,139410,138910,138891,138943,139444,
トライアル,flow.Sequence,9_2,2023-01-06T03:32:40.659Z,,,b,,,135,3200,completion,e.jpg,,,139411,139410,136177,136177,136210,139444,
空白時間1 (0.5秒),canvas.Screen,9_3_0,2023-01-06T03:32:41.159Z,,,b,,,315,499,timeout,e.jpg,,,139911,139910,139410,139411,139444,139943,
注視(1秒),canvas.Screen,9_3_1,2023-01-06T03:32:42.176Z,,,b,,,315,1016,timeout,e.jpg,,,140928,140927,139910,139911,139943,140959,
空白時間2 (0.5秒),canvas.Screen,9_3_2,2023-01-06T03:32:42.675Z,,,b,,,315,501,timeout,e.jpg,,,141427,141426,140927,140928,140959,141460,
刺激提示,canvas.Screen,9_3_3,2023-01-06T03:32:43.853Z,,,b,true,b,315,1167,response,e.jpg,b,keypress(f),142605,142593,141426,141427,141460,142643,
フィードバック(0.5秒),canvas.Screen,9_3_4,2023-01-06T03:32:44.359Z,,,b,,,315,501,timeout,e.jpg,,,143111,143110,142610,142606,142643,143144,
トライアル,flow.Sequence,9_3,2023-01-06T03:32:44.360Z,,,b,,,315,3666,completion,e.jpg,,,143111,143110,139410,139411,139444,143144,
空白時間1 (0.5秒),canvas.Screen,9_4_0,2023-01-06T03:32:44.859Z,,,d,,,180,500,timeout,eR.jpg,,,143610,143610,143110,143111,143144,143644,
注視(1秒),canvas.Screen,9_4_1,2023-01-06T03:32:45.841Z,,,d,,,180,982,timeout,eR.jpg,,,144593,144593,143610,143611,143644,144626,
空白時間2 (0.5秒),canvas.Screen,9_4_2,2023-01-06T03:32:46.342Z,,,d,,,180,501,timeout,eR.jpg,,,145093,145093,144593,144593,144626,145127,
刺激提示,canvas.Screen,9_4_3,2023-01-06T03:32:48.482Z,,,d,true,d,180,2129,response,eR.jpg,d,keypress(j),147234,147222,145093,145093,145127,147277,
フィードバック(0.5秒),canvas.Screen,9_4_4,2023-01-06T03:32:48.993Z,,,d,,,180,499,timeout,eR.jpg,,,147744,147743,147243,147235,147277,147776,
トライアル,flow.Sequence,9_4,2023-01-06T03:32:48.993Z,,,d,,,180,4599,completion,eR.jpg,,,147744,147743,143110,143111,143144,147776,
空白時間1 (0.5秒),canvas.Screen,9_5_0,2023-01-06T03:32:49.492Z,,,d,,,0,501,timeout,eR.jpg,,,148244,148244,147743,147745,147776,148277,
注視(1秒),canvas.Screen,9_5_1,2023-01-06T03:32:50.509Z,,,d,,,0,1016,timeout,eR.jpg,,,149261,149260,148244,148244,148277,149293,
空白時間2 (0.5秒),canvas.Screen,9_5_2,2023-01-06T03:32:51.008Z,,,d,,,0,500,timeout,eR.jpg,,,149760,149759,149260,149261,149293,149793,
刺激提示,canvas.Screen,9_5_3,2023-01-06T03:32:51.793Z,,,d,true,d,0,773,response,eR.jpg,d,keypress(j),150544,150532,149759,149760,149793,150593,
フィードバック(0.5秒),canvas.Screen,9_5_4,2023-01-06T03:32:52.309Z,,,d,,,0,500,timeout,eR.jpg,,,151061,151060,150559,150545.00000000003,150593,151093,
トライアル,flow.Sequence,9_5,2023-01-06T03:32:52.310Z,,,d,,,0,3284,completion,eR.jpg,,,151061,151060,147743,147744,147776,151093,
空白時間1 (0.5秒),canvas.Screen,9_6_0,2023-01-06T03:32:52.808Z,,,d,,,225,500,timeout,eR.jpg,,,151560,151559,151060,151061,151093,151593,
注視(1秒),canvas.Screen,9_6_1,2023-01-06T03:32:53.825Z,,,d,,,225,1017,timeout,eR.jpg,,,152577,152576,151559,151560,151593,152610,
空白時間2 (0.5秒),canvas.Screen,9_6_2,2023-01-06T03:32:54.326Z,,,d,,,225,499,timeout,eR.jpg,,,153077,153077,152576,152577,152610,153109,
刺激提示,canvas.Screen,9_6_3,2023-01-06T03:32:55.355Z,,,d,true,d,225,1014,response,eR.jpg,d,keypress(j),154106,154091,153077,153077,153109,154159,
フィードバック(0.5秒),canvas.Screen,9_6_4,2023-01-06T03:32:55.875Z,,,d,,,225,501,timeout,eR.jpg,,,154627,154626,154126,154107,154159,154660,
トライアル,flow.Sequence,9_6,2023-01-06T03:32:55.876Z,,,d,,,225,3533,completion,eR.jpg,,,154627,154626,151060,151061,151093,154660,
空白時間1 (0.5秒),canvas.Screen,9_7_0,2023-01-06T03:32:56.376Z,,,d,,,135,499,timeout,eR.jpg,,,155127,155127,154626,154627,154660,155159,
注視(1秒),canvas.Screen,9_7_1,2023-01-06T03:32:57.359Z,,,d,,,135,984,timeout,eR.jpg,,,156110,156110,155127,155127,155159,156143,
空白時間2 (0.5秒),canvas.Screen,9_7_2,2023-01-06T03:32:57.859Z,,,d,,,135,500,timeout,eR.jpg,,,156610,156610,156110,156111,156143,156643,
刺激提示,canvas.Screen,9_7_3,2023-01-06T03:32:59.194Z,,,d,true,d,135,1323,response,eR.jpg,d,keypress(j),157945,157933,156610,156611,156643,157993,
フィードバック(0.5秒),canvas.Screen,9_7_4,2023-01-06T03:32:59.709Z,,,d,,,135,500,timeout,eR.jpg,,,158461,158460,157959,157946,157993,158493,
トライアル,flow.Sequence,9_7,2023-01-06T03:32:59.710Z,,,d,,,135,3800,completion,eR.jpg,,,158461,158460,154626,154627,154660,158493,
空白時間1 (0.5秒),canvas.Screen,9_8_0,2023-01-06T03:33:00.208Z,,,b,,,0,500,timeout,e.jpg,,,158960,158959,158460,158461,158493,158993,
注視(1秒),canvas.Screen,9_8_1,2023-01-06T03:33:01.227Z,,,b,,,0,1017,timeout,e.jpg,,,159978,159976,158959,158960,158993,160010,
空白時間2 (0.5秒),canvas.Screen,9_8_2,2023-01-06T03:33:01.728Z,,,b,,,0,499,timeout,e.jpg,,,160479,160477,159976,159979,160010,160509,
刺激提示,canvas.Screen,9_8_3,2023-01-06T03:33:02.432Z,,,b,true,b,0,692,response,e.jpg,b,keypress(f),161183,161169,160477,160479,160509,161226,
フィードバック(0.5秒),canvas.Screen,9_8_4,2023-01-06T03:33:02.944Z,,,b,,,0,501,timeout,e.jpg,,,161695,161693,161193,161184,161226,161727,
トライアル,flow.Sequence,9_8,2023-01-06T03:33:02.945Z,,,b,,,0,3200,completion,e.jpg,,,161696,161693,158460,158461,158493,161727,
空白時間1 (0.5秒),canvas.Screen,9_9_0,2023-01-06T03:33:03.442Z,,,b,,,45,499,timeout,e.jpg,,,162193,162193,161693,161696,161727,162226,
注視(1秒),canvas.Screen,9_9_1,2023-01-06T03:33:04.459Z,,,b,,,45,1016,timeout,e.jpg,,,163210,163210,162193,162193,162226,163242,
空白時間2 (0.5秒),canvas.Screen,9_9_2,2023-01-06T03:33:04.959Z,,,b,,,45,501,timeout,e.jpg,,,163710,163710,163210,163210,163242,163743,
刺激提示,canvas.Screen,9_9_3,2023-01-06T03:33:05.430Z,,,b,true,b,45,459,response,e.jpg,b,keypress(f),164181,164169,163710,163710,163743,164226,
フィードバック(0.5秒),canvas.Screen,9_9_4,2023-01-06T03:33:05.942Z,,,b,,,45,500,timeout,e.jpg,,,164693,164693,164199,164182.00000000003,164226,164726,
トライアル,flow.Sequence,9_9,2023-01-06T03:33:05.943Z,,,b,,,45,2966,completion,e.jpg,,,164694.00000000003,164693,161693,161696,161727,164726,
空白時間1 (0.5秒),canvas.Screen,9_10_0,2023-01-06T03:33:06.443Z,,,b,,,270,500,timeout,e.jpg,,,165194.00000000003,165193,164693,164694.00000000003,164726,165226,
注視(1秒),canvas.Screen,9_10_1,2023-01-06T03:33:07.459Z,,,b,,,270,1017,timeout,e.jpg,,,166210,166210,165193,165194.00000000003,165226,166243,
空白時間2 (0.5秒),canvas.Screen,9_10_2,2023-01-06T03:33:07.958Z,,,b,,,270,500,timeout,e.jpg,,,166709,166709,166210,166210,166243,166743,
刺激提示,canvas.Screen,9_10_3,2023-01-06T03:33:09.028Z,,,b,true,b,270,1057,response,e.jpg,b,keypress(f),167779,167766,166709,166710,166743,167826,
フィードバック(0.5秒),canvas.Screen,9_10_4,2023-01-06T03:33:09.542Z,,,b,,,270,501,timeout,e.jpg,,,168293,168293,167793,167780,167826,168327,
トライアル,flow.Sequence,9_10,2023-01-06T03:33:09.542Z,,,b,,,270,3567,completion,e.jpg,,,168293,168293,164693,164694.00000000003,164726,168327,
空白時間1 (0.5秒),canvas.Screen,9_11_0,2023-01-06T03:33:10.042Z,,,d,,,315,499,timeout,eR.jpg,,,168793,168793,168293,168293,168327,168826,
注視(1秒),canvas.Screen,9_11_1,2023-01-06T03:33:11.059Z,,,d,,,315,1016,timeout,eR.jpg,,,169810,169809,168793,168793,168826,169842,
空白時間2 (0.5秒),canvas.Screen,9_11_2,2023-01-06T03:33:11.559Z,,,d,,,315,501,timeout,eR.jpg,,,170310,170310,169809,169810,169842,170343,
刺激提示,canvas.Screen,9_11_3,2023-01-06T03:33:12.333Z,,,d,true,d,315,762,response,eR.jpg,d,keypress(j),171084,171072,170310,170311,170343,171127,
フィードバック(0.5秒),canvas.Screen,9_11_4,2023-01-06T03:33:12.842Z,,,d,,,315,499,timeout,eR.jpg,,,171593.00000000003,171593,171093,171085,171127,171626,
トライアル,flow.Sequence,9_11,2023-01-06T03:33:12.843Z,,,d,,,315,3266,completion,eR.jpg,,,171594,171593,168293,168293,168327,171626,
空白時間1 (0.5秒),canvas.Screen,9_12_0,2023-01-06T03:33:13.342Z,,,d,,,270,500,timeout,eR.jpg,,,172093.00000000003,172093,171593,171594,171626,172126,
注視(1秒),canvas.Screen,9_12_1,2023-01-06T03:33:14.358Z,,,d,,,270,1017,timeout,eR.jpg,,,173109,173109,172093,172093.00000000003,172126,173143,
空白時間2 (0.5秒),canvas.Screen,9_12_2,2023-01-06T03:33:14.859Z,,,d,,,270,499,timeout,eR.jpg,,,173610,173610,173109,173109,173143,173642,
刺激提示,canvas.Screen,9_12_3,2023-01-06T03:33:15.593Z,,,d,true,d,270,721.0000000000291,response,eR.jpg,d,keypress(j),174344,174331.00000000003,173610,173610,173642,174392,
フィードバック(0.5秒),canvas.Screen,9_12_4,2023-01-06T03:33:16.109Z,,,d,,,270,500,timeout,eR.jpg,,,174860,174860,174359,174345,174392,174892,
トライアル,flow.Sequence,9_12,2023-01-06T03:33:16.109Z,,,d,,,270,3234,completion,eR.jpg,,,174860,174860,171593,171594,171626,174892,
空白時間1 (0.5秒),canvas.Screen,9_13_0,2023-01-06T03:33:16.608Z,,,d,,,45,501,timeout,eR.jpg,,,175359,175359,174860,174861,174892,175393,
注視(1秒),canvas.Screen,9_13_1,2023-01-06T03:33:17.625Z,,,d,,,45,1017,timeout,eR.jpg,,,176376,176376,175359,175360,175393,176410,
空白時間2 (0.5秒),canvas.Screen,9_13_2,2023-01-06T03:33:18.125Z,,,d,,,45,499,timeout,eR.jpg,,,176876,176876,176376,176376,176410,176909,
刺激提示,canvas.Screen,9_13_3,2023-01-06T03:33:18.916Z,,,d,true,d,45,778,response,eR.jpg,d,keypress(j),177667,177654,176876,176876,176909,177709,
フィードバック(0.5秒),canvas.Screen,9_13_4,2023-01-06T03:33:19.425Z,,,d,,,45,501,timeout,eR.jpg,,,178176.00000000003,178176,177676,177668,177709,178210,
トライアル,flow.Sequence,9_13,2023-01-06T03:33:19.426Z,,,d,,,45,3284,completion,eR.jpg,,,178177,178176,174860,174861,174892,178210,
空白時間1 (0.5秒),canvas.Screen,9_14_0,2023-01-06T03:33:19.926Z,,,b,,,225,499,timeout,e.jpg,,,178677,178676,178176,178177,178210,178709,
注視(1秒),canvas.Screen,9_14_1,2023-01-06T03:33:20.909Z,,,b,,,225,984,timeout,e.jpg,,,179660,179660,178676,178677,178709,179693,
空白時間2 (0.5秒),canvas.Screen,9_14_2,2023-01-06T03:33:21.409Z,,,b,,,225,499,timeout,e.jpg,,,180160,180159,179660,179660,179693,180192,
刺激提示,canvas.Screen,9_14_3,2023-01-06T03:33:22.828Z,,,b,true,b,225,1406,response,e.jpg,b,keypress(f),181579,181565,180159,180160,180192,181626,
フィードバック(0.5秒),canvas.Screen,9_14_4,2023-01-06T03:33:23.342Z,,,b,,,225,501,timeout,e.jpg,,,182093.00000000003,182092,181593,181579,181626,182127,
トライアル,flow.Sequence,9_14,2023-01-06T03:33:23.342Z,,,b,,,225,3882,completion,e.jpg,,,182093.00000000003,182092,178176,178177,178210,182127,
空白時間1 (0.5秒),canvas.Screen,9_15_0,2023-01-06T03:33:23.842Z,,,b,,,180,499,timeout,e.jpg,,,182593.00000000003,182593,182092,182093.00000000003,182127,182626,
注視(1秒),canvas.Screen,9_15_1,2023-01-06T03:33:24.859Z,,,b,,,180,1017,timeout,e.jpg,,,183610,183610,182593,182594,182626,183643,
空白時間2 (0.5秒),canvas.Screen,9_15_2,2023-01-06T03:33:25.358Z,,,b,,,180,500,timeout,e.jpg,,,184109,184109,183610,183610,183643,184143,
刺激提示,canvas.Screen,9_15_3,2023-01-06T03:33:26.072Z,,,b,true,b,180,701,response,e.jpg,b,keypress(f),184823,184810,184109,184109,184143,184878,
フィードバック(0.5秒),canvas.Screen,9_15_4,2023-01-06T03:33:26.593Z,,,b,,,180,498,timeout,e.jpg,,,185343.00000000003,185343,184843,184824,184878,185376,
トライアル,flow.Sequence,9_15,2023-01-06T03:33:26.593Z,,,b,,,180,3216,completion,e.jpg,,,185344,185343,182092,182093.00000000003,182127,185376,
タスクのセット,flow.Loop,9,2023-01-06T03:33:26.593Z,,,,,,,55999,completion,,,,185344,185343,129311,129311,129344,185376,
空白時間1 (0.5秒),canvas.Screen,10_0_0,2023-01-06T03:33:27.092Z,,,b,,,0,500,timeout,e.jpg,,,185842,185842,185343,185344,185376,185876,
注視(1秒),canvas.Screen,10_0_1,2023-01-06T03:33:28.109Z,,,b,,,0,1016,timeout,e.jpg,,,186860,186860,185842,185843.00000000003,185876,186892,
空白時間2 (0.5秒),canvas.Screen,10_0_2,2023-01-06T03:33:28.608Z,,,b,,,0,501,timeout,e.jpg,,,187359,187359,186860,186860,186892,187393,
刺激提示,canvas.Screen,10_0_3,2023-01-06T03:33:29.231Z,,,b,true,b,0,611,response,e.jpg,b,keypress(f),187982,187970,187359,187359,187393,188026,
フィードバック(0.5秒),canvas.Screen,10_0_4,2023-01-06T03:33:29.742Z,,,b,,,0,500,timeout,e.jpg,,,188493,188492,188000,187983,188026,188526,
トライアル,flow.Sequence,10_0,2023-01-06T03:33:29.743Z,,,b,,,0,3116,completion,e.jpg,,,188494,188492,185343,185344,185376,188526,
空白時間1 (0.5秒),canvas.Screen,10_1_0,2023-01-06T03:33:30.243Z,,,d,,,0,500,timeout,eR.jpg,,,188994,188993,188492,188494,188526,189026,
注視(1秒),canvas.Screen,10_1_1,2023-01-06T03:33:31.410Z,,,d,,,0,1017,timeout,eR.jpg,,,190010,190010,188993,188994,189026,190043,
空白時間2 (0.5秒),canvas.Screen,10_1_2,2023-01-06T03:33:31.910Z,,,d,,,0,500,timeout,eR.jpg,,,190510,190510,190010,190010,190043,190543,
刺激提示,canvas.Screen,10_1_3,2023-01-06T03:33:32.598Z,,,d,true,d,0,679,response,eR.jpg,d,keypress(j),191198,191189,190510,190510,190543,191243,
フィードバック(0.5秒),canvas.Screen,10_1_4,2023-01-06T03:33:33.113Z,,,d,,,0,500,timeout,eR.jpg,,,191712.00000000003,191710,191210,191199,191243,191743,
トライアル,flow.Sequence,10_1,2023-01-06T03:33:33.113Z,,,d,,,0,3184,completion,eR.jpg,,,191712.00000000003,191710,188492,188494,188526,191743,
空白時間1 (0.5秒),canvas.Screen,10_2_0,2023-01-06T03:33:33.610Z,,,b,,,225,500,timeout,e.jpg,,,192210,192210,191710,191713,191743,192243,
注視(1秒),canvas.Screen,10_2_1,2023-01-06T03:33:34.594Z,,,b,,,225,983,timeout,e.jpg,,,193194.00000000003,193193,192210,192210,192243,193226,
空白時間2 (0.5秒),canvas.Screen,10_2_2,2023-01-06T03:33:35.093Z,,,b,,,225,500,timeout,e.jpg,,,193693,193692,193193,193194.00000000003,193226,193726,
刺激提示,canvas.Screen,10_2_3,2023-01-06T03:33:35.877Z,,,b,true,b,225,780,response,e.jpg,b,keypress(f),194477,194472,193692,193693,193726,194526,
フィードバック(0.5秒),canvas.Screen,10_2_4,2023-01-06T03:33:36.394Z,,,b,,,225,500,timeout,e.jpg,,,194994,194993,194492,194478,194526,195026,
トライアル,flow.Sequence,10_2,2023-01-06T03:33:36.395Z,,,b,,,225,3250,completion,e.jpg,,,194994,194993,191710,191713,191743,195026,
空白時間1 (0.5秒),canvas.Screen,10_3_0,2023-01-06T03:33:36.893Z,,,d,,,180,500,timeout,eR.jpg,,,195493,195492,194993,194994,195026,195526,
注視(1秒),canvas.Screen,10_3_1,2023-01-06T03:33:37.911Z,,,d,,,180,1017,timeout,eR.jpg,,,196510,196510,195492,195493,195526,196543,
空白時間2 (0.5秒),canvas.Screen,10_3_2,2023-01-06T03:33:38.410Z,,,d,,,180,500,timeout,eR.jpg,,,197010,197010,196510,196510,196543,197043,
刺激提示,canvas.Screen,10_3_3,2023-01-06T03:33:39.256Z,,,d,true,d,180,841,response,eR.jpg,d,keypress(j),197855.00000000003,197851,197010,197010,197043,197909,
フィードバック(0.5秒),canvas.Screen,10_3_4,2023-01-06T03:33:39.776Z,,,d,,,180,501,timeout,eR.jpg,,,198376,198375,197876,197856,197909,198410,
トライアル,flow.Sequence,10_3,2023-01-06T03:33:39.777Z,,,d,,,180,3349,completion,eR.jpg,,,198376,198375,194993,194994,195026,198410,
空白時間1 (0.5秒),canvas.Screen,10_4_0,2023-01-06T03:33:40.276Z,,,b,,,135,499,timeout,e.jpg,,,198876,198875,198375,198376,198410,198909,
注視(1秒),canvas.Screen,10_4_1,2023-01-06T03:33:41.260Z,,,b,,,135,983,timeout,e.jpg,,,199860,199860,198875,198876,198909,199892,
空白時間2 (0.5秒),canvas.Screen,10_4_2,2023-01-06T03:33:41.760Z,,,b,,,135,501,timeout,e.jpg,,,200359,200359,199860,199860,199892,200393,
刺激提示,canvas.Screen,10_4_3,2023-01-06T03:33:42.683Z,,,b,true,b,135,919,response,e.jpg,b,keypress(f),201283.00000000003,201278,200359,200359,200393,201325,
フィードバック(0.5秒),canvas.Screen,10_4_4,2023-01-06T03:33:43.194Z,,,b,,,135,501,timeout,e.jpg,,,201794,201793,201292,201284,201325,201826,
トライアル,flow.Sequence,10_4,2023-01-06T03:33:43.194Z,,,b,,,135,3383,completion,e.jpg,,,201794,201793,198375,198376,198410,201826,
空白時間1 (0.5秒),canvas.Screen,10_5_0,2023-01-06T03:33:43.693Z,,,d,,,135,499,timeout,eR.jpg,,,202293,202292,201793,201794,201826,202325,
注視(1秒),canvas.Screen,10_5_1,2023-01-06T03:33:44.677Z,,,d,,,135,984,timeout,eR.jpg,,,203276,203276,202292,202293,202325,203309,
空白時間2 (0.5秒),canvas.Screen,10_5_2,2023-01-06T03:33:45.176Z,,,d,,,135,500,timeout,eR.jpg,,,203775,203775,203276,203277.00000000003,203309,203809,
刺激提示,canvas.Screen,10_5_3,2023-01-06T03:33:46.227Z,,,d,true,d,135,1047,response,eR.jpg,d,keypress(j),204827,204822,203775,203776,203809,204876,
フィードバック(0.5秒),canvas.Screen,10_5_4,2023-01-06T03:33:46.744Z,,,d,,,135,499,timeout,eR.jpg,,,205343.00000000003,205343,204843,204828,204876,205375,
トライアル,flow.Sequence,10_5,2023-01-06T03:33:46.744Z,,,d,,,135,3517,completion,eR.jpg,,,205343.00000000003,205343,201793,201794,201826,205375,
空白時間1 (0.5秒),canvas.Screen,10_6_0,2023-01-06T03:33:47.244Z,,,b,,,45,501,timeout,e.jpg,,,205843.00000000003,205843,205343,205344,205375,205876,
注視(1秒),canvas.Screen,10_6_1,2023-01-06T03:33:48.260Z,,,b,,,45,1016,timeout,e.jpg,,,206860,206859,205843,205843.00000000003,205876,206892,
空白時間2 (0.5秒),canvas.Screen,10_6_2,2023-01-06T03:33:48.760Z,,,b,,,45,501,timeout,e.jpg,,,207359,207359,206859,206860,206892,207393,
刺激提示,canvas.Screen,10_6_3,2023-01-06T03:33:49.287Z,,,b,true,b,45,522,response,e.jpg,b,keypress(f),207887,207881,207359,207359,207393,207926,
フィードバック(0.5秒),canvas.Screen,10_6_4,2023-01-06T03:33:49.795Z,,,b,,,45,500,timeout,e.jpg,,,208394,208393,207892,207888,207926,208426,
トライアル,flow.Sequence,10_6,2023-01-06T03:33:49.795Z,,,b,,,45,3018,completion,e.jpg,,,208395,208393,205343,205344,205375,208426,
空白時間1 (0.5秒),canvas.Screen,10_7_0,2023-01-06T03:33:50.293Z,,,d,,,225,499,timeout,eR.jpg,,,208892,208892,208393,208395,208426,208925,
注視(1秒),canvas.Screen,10_7_1,2023-01-06T03:33:51.293Z,,,d,,,225,1001,timeout,eR.jpg,,,209893,209892,208892,208893,208925,209926,
空白時間2 (0.5秒),canvas.Screen,10_7_2,2023-01-06T03:33:51.794Z,,,d,,,225,499,timeout,eR.jpg,,,210393,210393,209892,209893,209926,210425,
刺激提示,canvas.Screen,10_7_3,2023-01-06T03:33:52.657Z,,,d,true,d,225,858,response,eR.jpg,d,keypress(j),211256,211251,210393,210394,210425,211309,
フィードバック(0.5秒),canvas.Screen,10_7_4,2023-01-06T03:33:53.177Z,,,d,,,225,500,timeout,eR.jpg,,,211776,211776,211276,211257,211309,211809,
トライアル,flow.Sequence,10_7,2023-01-06T03:33:53.177Z,,,d,,,225,3350,completion,eR.jpg,,,211776,211776,208393,208395,208426,211809,
空白時間1 (0.5秒),canvas.Screen,10_8_0,2023-01-06T03:33:53.677Z,,,b,,,90,500,timeout,e.jpg,,,212276,212275,211776,211776,211809,212309,
注視(1秒),canvas.Screen,10_8_1,2023-01-06T03:33:54.661Z,,,b,,,90,983,timeout,e.jpg,,,213260,213259,212275,212276,212309,213292,
空白時間2 (0.5秒),canvas.Screen,10_8_2,2023-01-06T03:33:55.160Z,,,b,,,90,500,timeout,e.jpg,,,213759,213759,213259,213260,213292,213792,
刺激提示,canvas.Screen,10_8_3,2023-01-06T03:33:55.929Z,,,b,true,b,90,765,response,e.jpg,b,keypress(f),214528,214524,213759,213759,213792,214575,
フィードバック(0.5秒),canvas.Screen,10_8_4,2023-01-06T03:33:56.443Z,,,b,,,90,501,timeout,e.jpg,,,215042,215042,214543,214529,214575,215076,
トライアル,flow.Sequence,10_8,2023-01-06T03:33:56.444Z,,,b,,,90,3233,completion,e.jpg,,,215043,215042,211776,211776,211809,215076,
空白時間1 (0.5秒),canvas.Screen,10_9_0,2023-01-06T03:33:56.944Z,,,d,,,45,499,timeout,eR.jpg,,,215543,215543,215042,215043,215076,215575,
注視(1秒),canvas.Screen,10_9_1,2023-01-06T03:33:57.960Z,,,d,,,45,1018,timeout,eR.jpg,,,216559,216559,215543,215543,215575,216593,
空白時間2 (0.5秒),canvas.Screen,10_9_2,2023-01-06T03:33:58.459Z,,,d,,,45,499,timeout,eR.jpg,,,217059,217058,216559,216559,216593,217092,
刺激提示,canvas.Screen,10_9_3,2023-01-06T03:33:59.196Z,,,d,true,d,45,732,response,eR.jpg,d,keypress(j),217795.00000000003,217790,217058,217059,217092,217842,
フィードバック(0.5秒),canvas.Screen,10_9_4,2023-01-06T03:33:59.710Z,,,d,,,45,501,timeout,eR.jpg,,,218310,218309,217809,217795.00000000003,217842,218343,
トライアル,flow.Sequence,10_9,2023-01-06T03:33:59.711Z,,,d,,,45,3233,completion,eR.jpg,,,218310,218309,215042,215043,215076,218343,
空白時間1 (0.5秒),canvas.Screen,10_10_0,2023-01-06T03:34:00.211Z,,,b,,,315,499,timeout,e.jpg,,,218810,218809,218309,218310,218343,218842,
注視(1秒),canvas.Screen,10_10_1,2023-01-06T03:34:01.196Z,,,b,,,315,983,timeout,e.jpg,,,219795.00000000003,219793,218809,218810,218842,219825,
空白時間2 (0.5秒),canvas.Screen,10_10_2,2023-01-06T03:34:01.696Z,,,b,,,315,500,timeout,e.jpg,,,220295.00000000003,220292,219793,219796,219825,220325,
刺激提示,canvas.Screen,10_10_3,2023-01-06T03:34:02.243Z,,,b,true,b,315,542,response,e.jpg,b,keypress(f),220842,220834,220292,220295.00000000003,220325,220892,
フィードバック(0.5秒),canvas.Screen,10_10_4,2023-01-06T03:34:02.762Z,,,b,,,315,500,timeout,e.jpg,,,221361.00000000003,221359,220858,220843.00000000003,220892,221392,
トライアル,flow.Sequence,10_10,2023-01-06T03:34:02.762Z,,,b,,,315,3016,completion,e.jpg,,,221361.00000000003,221359,218309,218310,218343,221392,
空白時間1 (0.5秒),canvas.Screen,10_11_0,2023-01-06T03:34:03.261Z,,,b,,,270,500,timeout,e.jpg,,,221860,221859,221359,221362,221392,221892,
注視(1秒),canvas.Screen,10_11_1,2023-01-06T03:34:04.244Z,,,b,,,270,984,timeout,e.jpg,,,222843.00000000003,222843,221859,221860,221892,222876,
空白時間2 (0.5秒),canvas.Screen,10_11_2,2023-01-06T03:34:04.744Z,,,b,,,270,499,timeout,e.jpg,,,223343.00000000003,223343,222843,222843.00000000003,222876,223375,
刺激提示,canvas.Screen,10_11_3,2023-01-06T03:34:05.281Z,,,b,true,b,270,532,response,e.jpg,b,keypress(f),223880,223875,223343,223343.00000000003,223375,223925,
フィードバック(0.5秒),canvas.Screen,10_11_4,2023-01-06T03:34:05.794Z,,,b,,,270,500,timeout,e.jpg,,,224393,224393,223892,223881,223925,224425,
トライアル,flow.Sequence,10_11,2023-01-06T03:34:05.794Z,,,b,,,270,3001,completion,e.jpg,,,224393,224393,221359,221362,221392,224425,
空白時間1 (0.5秒),canvas.Screen,10_12_0,2023-01-06T03:34:06.294Z,,,d,,,270,500,timeout,eR.jpg,,,224893,224892,224393,224394,224425,224925,
注視(1秒),canvas.Screen,10_12_1,2023-01-06T03:34:07.277Z,,,d,,,270,984,timeout,eR.jpg,,,225876,225876,224892,224893,224925,225909,
空白時間2 (0.5秒),canvas.Screen,10_12_2,2023-01-06T03:34:07.776Z,,,d,,,270,500,timeout,eR.jpg,,,226375,226375,225876,225876,225909,226409,
刺激提示,canvas.Screen,10_12_3,2023-01-06T03:34:08.333Z,,,d,true,d,270,552,response,eR.jpg,d,keypress(j),226932.00000000003,226927,226375,226375,226409,226975,
フィードバック(0.5秒),canvas.Screen,10_12_4,2023-01-06T03:34:08.844Z,,,d,,,270,501,timeout,eR.jpg,,,227443,227442,226942,226933,226975,227476,
トライアル,flow.Sequence,10_12,2023-01-06T03:34:08.844Z,,,d,,,270,3017,completion,eR.jpg,,,227443,227442,224393,224394,224425,227476,
空白時間1 (0.5秒),canvas.Screen,10_13_0,2023-01-06T03:34:09.343Z,,,d,,,90,500,timeout,eR.jpg,,,227942,227942,227442,227443,227476,227976,
注視(1秒),canvas.Screen,10_13_1,2023-01-06T03:34:10.327Z,,,d,,,90,983,timeout,eR.jpg,,,228926.00000000003,228926,227942,227942,227976,228959,
空白時間2 (0.5秒),canvas.Screen,10_13_2,2023-01-06T03:34:10.827Z,,,d,,,90,500,timeout,eR.jpg,,,229426.00000000003,229425,228926,228926.00000000003,228959,229459,
刺激提示,canvas.Screen,10_13_3,2023-01-06T03:34:11.676Z,,,d,true,d,90,845,response,eR.jpg,d,keypress(j),230275,230270,229425,229426.00000000003,229459,230329,
フィードバック(0.5秒),canvas.Screen,10_13_4,2023-01-06T03:34:12.194Z,,,d,,,90,496,timeout,eR.jpg,,,230793,230792,230292,230276,230329,230825,
トライアル,flow.Sequence,10_13,2023-01-06T03:34:12.195Z,,,d,,,90,3316,completion,eR.jpg,,,230794,230792,227442,227443,227476,230825,
空白時間1 (0.5秒),canvas.Screen,10_14_0,2023-01-06T03:34:12.694Z,,,d,,,315,500,timeout,eR.jpg,,,231292,231292,230792,230794,230825,231325,
注視(1秒),canvas.Screen,10_14_1,2023-01-06T03:34:13.711Z,,,d,,,315,1017,timeout,eR.jpg,,,232310,232309,231292,231293,231325,232342,
空白時間2 (0.5秒),canvas.Screen,10_14_2,2023-01-06T03:34:14.211Z,,,d,,,315,500,timeout,eR.jpg,,,232810,232809,232309,232310,232342,232842,
刺激提示,canvas.Screen,10_14_3,2023-01-06T03:34:15.036Z,,,d,true,d,315,819,response,eR.jpg,d,keypress(j),233634,233628,232809,232810,232842,233675,
フィードバック(0.5秒),canvas.Screen,10_14_4,2023-01-06T03:34:15.544Z,,,d,,,315,500,timeout,eR.jpg,,,234143,234142,233642,233636,233675,234175,
トライアル,flow.Sequence,10_14,2023-01-06T03:34:15.544Z,,,d,,,315,3317,completion,eR.jpg,,,234143,234142,230792,230794,230825,234175,
空白時間1 (0.5秒),canvas.Screen,10_15_0,2023-01-06T03:34:16.044Z,,,b,,,180,501,timeout,e.jpg,,,234643,234642,234142,234143,234175,234676,
注視(1秒),canvas.Screen,10_15_1,2023-01-06T03:34:17.060Z,,,b,,,180,1016,timeout,e.jpg,,,235658.00000000003,235658,234642,234643,234676,235692,
空白時間2 (0.5秒),canvas.Screen,10_15_2,2023-01-06T03:34:17.560Z,,,b,,,180,499,timeout,e.jpg,,,236159,236158,235658,235659,235692,236191,
刺激提示,canvas.Screen,10_15_3,2023-01-06T03:34:18.244Z,,,b,false,b,180,679.0000000000291,response,e.jpg,d,keypress(j),236842,236837.00000000003,236158,236159,236191,236892,
フィードバック(0.5秒),canvas.Screen,10_15_4,2023-01-06T03:34:18.760Z,,,b,,,180,500,timeout,e.jpg,,,237359,237358,236859,236843.00000000003,236892,237392,
トライアル,flow.Sequence,10_15,2023-01-06T03:34:18.760Z,,,b,,,180,3183,completion,e.jpg,,,237359,237358,234142,234143,234175,237392,
タスクのセット,flow.Loop,10,2023-01-06T03:34:18.760Z,,,,,,,51982,completion,,,,237359,237358,185343,185344,185376,237392,
空白時間1 (0.5秒),canvas.Screen,11_0_0,2023-01-06T03:34:19.260Z,,,b,,,135,500,timeout,e.jpg,,,237859,237859,237358,237359,237392,237892,
注視(1秒),canvas.Screen,11_0_1,2023-01-06T03:34:20.279Z,,,b,,,135,1017,timeout,e.jpg,,,238878,238875,237859,237859,237892,238909,
空白時間2 (0.5秒),canvas.Screen,11_0_2,2023-01-06T03:34:20.779Z,,,b,,,135,500,timeout,e.jpg,,,239377,239375,238875,238878,238909,239409,
刺激提示,canvas.Screen,11_0_3,2023-01-06T03:34:21.641Z,,,b,true,b,135,858,response,e.jpg,b,keypress(f),240240,240233,239375,239377,239409,240292,
フィードバック(0.5秒),canvas.Screen,11_0_4,2023-01-06T03:34:22.163Z,,,b,,,135,500,timeout,e.jpg,,,240762,240758,240258,240241,240292,240792,
トライアル,flow.Sequence,11_0,2023-01-06T03:34:22.163Z,,,b,,,135,3366,completion,e.jpg,,,240762,240758,237358,237359,237392,240792,
空白時間1 (0.5秒),canvas.Screen,11_1_0,2023-01-06T03:34:22.661Z,,,b,,,225,500,timeout,e.jpg,,,241259,241259,240758,240762,240792,241292,
注視(1秒),canvas.Screen,11_1_1,2023-01-06T03:34:23.676Z,,,b,,,225,1017,timeout,e.jpg,,,242275,242275,241259,241260,241292,242309,
空白時間2 (0.5秒),canvas.Screen,11_1_2,2023-01-06T03:34:24.177Z,,,b,,,225,500,timeout,e.jpg,,,242775,242775,242275,242275,242309,242809,
刺激提示,canvas.Screen,11_1_3,2023-01-06T03:34:25.286Z,,,b,true,b,225,1104.000000000029,response,e.jpg,b,keypress(f),243885,243879.00000000003,242775,242776,242809,243926,
フィードバック(0.5秒),canvas.Screen,11_1_4,2023-01-06T03:34:25.794Z,,,b,,,225,499,timeout,e.jpg,,,244392,244392,243892,243885,243926,244425,
トライアル,flow.Sequence,11_1,2023-01-06T03:34:25.794Z,,,b,,,225,3600,completion,e.jpg,,,244393,244392,240758,240762,240792,244425,
空白時間1 (0.5秒),canvas.Screen,11_2_0,2023-01-06T03:34:26.296Z,,,d,,,180,501,timeout,eR.jpg,,,244894,244892,244392,244393,244425,244926,
注視(1秒),canvas.Screen,11_2_1,2023-01-06T03:34:27.311Z,,,d,,,180,1016,timeout,eR.jpg,,,245909,245909,244892,244895,244926,245942,
空白時間2 (0.5秒),canvas.Screen,11_2_2,2023-01-06T03:34:27.810Z,,,d,,,180,500,timeout,eR.jpg,,,246408.00000000003,246408,245909,245909,245942,246442,
刺激提示,canvas.Screen,11_2_3,2023-01-06T03:34:28.717Z,,,d,true,d,180,902,response,eR.jpg,d,keypress(j),247316,247310,246408,246409,246442,247358,
フィードバック(0.5秒),canvas.Screen,11_2_4,2023-01-06T03:34:29.227Z,,,d,,,180,500,timeout,eR.jpg,,,247825.00000000003,247825,247326,247316,247358,247858,
トライアル,flow.Sequence,11_2,2023-01-06T03:34:29.227Z,,,d,,,180,3400,completion,eR.jpg,,,247826,247825,244392,244393,244425,247858,
空白時間1 (0.5秒),canvas.Screen,11_3_0,2023-01-06T03:34:29.727Z,,,d,,,315,501,timeout,eR.jpg,,,248326,248326,247825,247826,247858,248359,
注視(1秒),canvas.Screen,11_3_1,2023-01-06T03:34:30.711Z,,,d,,,315,983,timeout,eR.jpg,,,249309,249309,248326,248327,248359,249342,
空白時間2 (0.5秒),canvas.Screen,11_3_2,2023-01-06T03:34:31.211Z,,,d,,,315,500,timeout,eR.jpg,,,249809,249809,249309,249309,249342,249842,
刺激提示,canvas.Screen,11_3_3,2023-01-06T03:34:32.102Z,,,d,true,d,315,886,response,eR.jpg,d,keypress(j),250701,250695,249809,249809,249842,250742,
フィードバック(0.5秒),canvas.Screen,11_3_4,2023-01-06T03:34:32.610Z,,,d,,,315,500,timeout,eR.jpg,,,251209,251208,250709,250702,250742,251242,
トライアル,flow.Sequence,11_3,2023-01-06T03:34:32.611Z,,,d,,,315,3350,completion,eR.jpg,,,251209,251208,247825,247826,247858,251242,
空白時間1 (0.5秒),canvas.Screen,11_4_0,2023-01-06T03:34:33.111Z,,,b,,,0,500,timeout,e.jpg,,,251709,251709,251208,251210,251242,251742,
注視(1秒),canvas.Screen,11_4_1,2023-01-06T03:34:34.128Z,,,b,,,0,1016,timeout,e.jpg,,,252726,252726,251709,251709,251742,252758,
空白時間2 (0.5秒),canvas.Screen,11_4_2,2023-01-06T03:34:34.627Z,,,b,,,0,501,timeout,e.jpg,,,253225,253225,252726,252726,252758,253259,
刺激提示,canvas.Screen,11_4_3,2023-01-06T03:34:35.230Z,,,b,true,b,0,598,response,e.jpg,b,keypress(f),253828,253823,253225,253225,253259,253875,
フィードバック(0.5秒),canvas.Screen,11_4_4,2023-01-06T03:34:35.744Z,,,b,,,0,501,timeout,e.jpg,,,254343.00000000003,254342,253842,253829,253875,254376,
トライアル,flow.Sequence,11_4,2023-01-06T03:34:35.745Z,,,b,,,0,3100,completion,e.jpg,,,254343.00000000003,254342,251208,251210,251242,254376,
空白時間1 (0.5秒),canvas.Screen,11_5_0,2023-01-06T03:34:36.243Z,,,b,,,45,499,timeout,e.jpg,,,254842,254841,254342,254343.00000000003,254376,254875,
注視(1秒),canvas.Screen,11_5_1,2023-01-06T03:34:37.227Z,,,b,,,45,984,timeout,e.jpg,,,255826,255825,254841,254842,254875,255859,
空白時間2 (0.5秒),canvas.Screen,11_5_2,2023-01-06T03:34:37.727Z,,,b,,,45,499,timeout,e.jpg,,,256325,256324,255825,255826,255859,256358,
刺激提示,canvas.Screen,11_5_3,2023-01-06T03:34:38.270Z,,,b,true,b,45,539,response,e.jpg,b,keypress(f),256868,256863,256324,256325,256358,256908,
フィードバック(0.5秒),canvas.Screen,11_5_4,2023-01-06T03:34:38.776Z,,,b,,,45,500,timeout,e.jpg,,,257375,257374,256875,256869.00000000003,256908,257408,
トライアル,flow.Sequence,11_5,2023-01-06T03:34:38.777Z,,,b,,,45,2998,completion,e.jpg,,,257375,257374,254342,254343.00000000003,254376,257408,
空白時間1 (0.5秒),canvas.Screen,11_6_0,2023-01-06T03:34:39.276Z,,,b,,,315,501,timeout,e.jpg,,,257875,257874,257374,257375,257408,257909,
注視(1秒),canvas.Screen,11_6_1,2023-01-06T03:34:40.294Z,,,b,,,315,1016,timeout,e.jpg,,,258892,258892,257874,257875,257909,258925,
空白時間2 (0.5秒),canvas.Screen,11_6_2,2023-01-06T03:34:40.794Z,,,b,,,315,500,timeout,e.jpg,,,259392,259392,258892,258892,258925,259425,
刺激提示,canvas.Screen,11_6_3,2023-01-06T03:34:41.347Z,,,b,true,b,315,547.0000000000291,response,e.jpg,b,keypress(f),259945,259939.00000000003,259392,259393.00000000003,259425,259992,
フィードバック(0.5秒),canvas.Screen,11_6_4,2023-01-06T03:34:41.861Z,,,b,,,315,507,timeout,e.jpg,,,260459,260458,259958,259946.00000000003,259992,260499,
トライアル,flow.Sequence,11_6,2023-01-06T03:34:41.861Z,,,b,,,315,3050,completion,e.jpg,,,260459,260458,257374,257375,257408,260499,
空白時間1 (0.5秒),canvas.Screen,11_7_0,2023-01-06T03:34:42.360Z,,,b,,,90,493,timeout,e.jpg,,,260959,260958,260458,260459,260499,260992,
注視(1秒),canvas.Screen,11_7_1,2023-01-06T03:34:43.344Z,,,b,,,90,983,timeout,e.jpg,,,261942,261942,260958,260959,260992,261975,
空白時間2 (0.5秒),canvas.Screen,11_7_2,2023-01-06T03:34:43.843Z,,,b,,,90,501,timeout,e.jpg,,,262441.00000000006,262441,261942,261942.99999999997,261975,262476,
刺激提示,canvas.Screen,11_7_3,2023-01-06T03:34:44.469Z,,,b,true,b,90,620,response,e.jpg,b,keypress(f),263067,263061,262441,262441.00000000006,262476,263108,
フィードバック(0.5秒),canvas.Screen,11_7_4,2023-01-06T03:34:44.977Z,,,b,,,90,500,timeout,e.jpg,,,263575,263574,263075,263068,263108,263608,
トライアル,flow.Sequence,11_7,2023-01-06T03:34:44.977Z,,,b,,,90,3075,completion,e.jpg,,,263575,263574,260458,260459,260499,263608,
空白時間1 (0.5秒),canvas.Screen,11_8_0,2023-01-06T03:34:45.477Z,,,d,,,270,500,timeout,eR.jpg,,,264075,264075,263574,263575,263608,264108,
注視(1秒),canvas.Screen,11_8_1,2023-01-06T03:34:46.461Z,,,d,,,270,984,timeout,eR.jpg,,,265059,265059,264075,264075,264108,265092,
空白時間2 (0.5秒),canvas.Screen,11_8_2,2023-01-06T03:34:46.961Z,,,d,,,270,500,timeout,eR.jpg,,,265559,265558,265059,265059,265092,265592,
刺激提示,canvas.Screen,11_8_3,2023-01-06T03:34:47.627Z,,,d,true,d,270,661,response,eR.jpg,d,keypress(j),266226,266219,265558,265559,265592,266276,
フィードバック(0.5秒),canvas.Screen,11_8_4,2023-01-06T03:34:48.144Z,,,d,,,270,498,timeout,eR.jpg,,,266742,266742,266241,266226,266276,266774,
トライアル,flow.Sequence,11_8,2023-01-06T03:34:48.146Z,,,d,,,270,3134,completion,eR.jpg,,,266744,266742,263574,263575,263608,266774,
空白時間1 (0.5秒),canvas.Screen,11_9_0,2023-01-06T03:34:48.643Z,,,d,,,225,502,timeout,eR.jpg,,,267241,267241,266742,266745,266774,267276,
注視(1秒),canvas.Screen,11_9_1,2023-01-06T03:34:49.627Z,,,d,,,225,983,timeout,eR.jpg,,,268225,268225,267241,267241,267276,268259,
空白時間2 (0.5秒),canvas.Screen,11_9_2,2023-01-06T03:34:50.127Z,,,d,,,225,499,timeout,eR.jpg,,,268725,268724,268225,268225,268259,268758,
刺激提示,canvas.Screen,11_9_3,2023-01-06T03:34:51.073Z,,,d,true,d,225,942,response,eR.jpg,d,keypress(j),269672,269666,268724,268725,268758,269724,
フィードバック(0.5秒),canvas.Screen,11_9_4,2023-01-06T03:34:51.594Z,,,d,,,225,501,timeout,eR.jpg,,,270192,270192,269692,269672,269724,270225,
トライアル,flow.Sequence,11_9,2023-01-06T03:34:51.594Z,,,d,,,225,3418,completion,eR.jpg,,,270192,270192,266742,266745,266774,270225,
空白時間1 (0.5秒),canvas.Screen,11_10_0,2023-01-06T03:34:52.094Z,,,b,,,270,500,timeout,e.jpg,,,270692,270691,270192,270193,270225,270725,
注視(1秒),canvas.Screen,11_10_1,2023-01-06T03:34:53.110Z,,,b,,,270,1017,timeout,e.jpg,,,271708,271708,270691,270692,270725,271742,
空白時間2 (0.5秒),canvas.Screen,11_10_2,2023-01-06T03:34:53.610Z,,,b,,,270,499,timeout,e.jpg,,,272208,272207,271708,271708,271742,272241,
刺激提示,canvas.Screen,11_10_3,2023-01-06T03:34:54.233Z,,,b,true,b,270,618,response,e.jpg,b,keypress(f),272831,272825,272207,272208,272241,272874,
フィードバック(0.5秒),canvas.Screen,11_10_4,2023-01-06T03:34:54.745Z,,,b,,,270,502,timeout,e.jpg,,,273343,273342,272842,272832,272874,273376,
トライアル,flow.Sequence,11_10,2023-01-06T03:34:54.745Z,,,b,,,270,3117,completion,e.jpg,,,273343,273342,270192,270193,270225,273376,
空白時間1 (0.5秒),canvas.Screen,11_11_0,2023-01-06T03:34:55.243Z,,,b,,,180,500,timeout,e.jpg,,,273841,273841,273342,273343,273376,273876,
注視(1秒),canvas.Screen,11_11_1,2023-01-06T03:34:56.227Z,,,b,,,180,983,timeout,e.jpg,,,274825,274825,273841,273841,273876,274859,
空白時間2 (0.5秒),canvas.Screen,11_11_2,2023-01-06T03:34:56.727Z,,,b,,,180,499,timeout,e.jpg,,,275325,275325,274825,274825,274859,275358,
刺激提示,canvas.Screen,11_11_3,2023-01-06T03:34:57.503Z,,,b,true,b,180,770,response,e.jpg,b,keypress(f),276101,276095,275325,275325,275358,276142,
フィードバック(0.5秒),canvas.Screen,11_11_4,2023-01-06T03:34:58.010Z,,,b,,,180,499,timeout,e.jpg,,,276608,276607,276108,276102.00000000006,276142,276641,
トライアル,flow.Sequence,11_11,2023-01-06T03:34:58.010Z,,,b,,,180,3231,completion,e.jpg,,,276608,276607,273342,273343,273376,276641,
空白時間1 (0.5秒),canvas.Screen,11_12_0,2023-01-06T03:34:58.511Z,,,d,,,135,500,timeout,eR.jpg,,,277109,277108,276607,276608,276641,277141,
注視(1秒),canvas.Screen,11_12_1,2023-01-06T03:34:59.528Z,,,d,,,135,1017,timeout,eR.jpg,,,278126.00000000006,278125,277108,277109,277141,278158,
空白時間2 (0.5秒),canvas.Screen,11_12_2,2023-01-06T03:35:00.027Z,,,d,,,135,500,timeout,eR.jpg,,,278625,278625,278125,278126.00000000006,278158,278658,
刺激提示,canvas.Screen,11_12_3,2023-01-06T03:35:01.247Z,,,d,true,d,135,1213,response,eR.jpg,d,keypress(j),279845,279838,278625,278625,278658,279891,
フィードバック(0.5秒),canvas.Screen,11_12_4,2023-01-06T03:35:01.760Z,,,d,,,135,500,timeout,eR.jpg,,,280358,280358,279858,279845,279891,280391,
トライアル,flow.Sequence,11_12,2023-01-06T03:35:01.761Z,,,d,,,135,3717,completion,eR.jpg,,,280359,280358,276607,276608,276641,280391,
空白時間1 (0.5秒),canvas.Screen,11_13_0,2023-01-06T03:35:02.261Z,,,d,,,0,500,timeout,eR.jpg,,,280859,280858,280358,280359,280391,280891,
注視(1秒),canvas.Screen,11_13_1,2023-01-06T03:35:03.277Z,,,d,,,0,1016,timeout,eR.jpg,,,281874,281874,280858,280859,280891,281907,
空白時間2 (0.5秒),canvas.Screen,11_13_2,2023-01-06T03:35:03.779Z,,,d,,,0,501,timeout,eR.jpg,,,282377,282375,281874,281875,281907,282408,
刺激提示,canvas.Screen,11_13_3,2023-01-06T03:35:04.470Z,,,d,true,d,0,685,response,eR.jpg,d,keypress(j),283068,283060,282375,282377,282408,283107,
フィードバック(0.5秒),canvas.Screen,11_13_4,2023-01-06T03:35:04.979Z,,,d,,,0,501,timeout,eR.jpg,,,283577,283574,283075,283069,283107,283608,
トライアル,flow.Sequence,11_13,2023-01-06T03:35:04.979Z,,,d,,,0,3183,completion,eR.jpg,,,283577,283574,280358,280359,280391,283608,
空白時間1 (0.5秒),canvas.Screen,11_14_0,2023-01-06T03:35:05.477Z,,,d,,,90,500,timeout,eR.jpg,,,284074,284074,283574,283577,283608,284108,
注視(1秒),canvas.Screen,11_14_1,2023-01-06T03:35:06.494Z,,,d,,,90,1017,timeout,eR.jpg,,,285092,285091,284074,284075,284108,285125,
空白時間2 (0.5秒),canvas.Screen,11_14_2,2023-01-06T03:35:06.994Z,,,d,,,90,500,timeout,eR.jpg,,,285592,285592,285091,285092,285125,285625,
刺激提示,canvas.Screen,11_14_3,2023-01-06T03:35:08.168Z,,,d,true,d,90,1167,response,eR.jpg,d,keypress(j),286766,286759,285592,285592,285625,286808,
フィードバック(0.5秒),canvas.Screen,11_14_4,2023-01-06T03:35:08.676Z,,,d,,,90,499,timeout,eR.jpg,,,287274,287274,286774,286766,286808,287307,
トライアル,flow.Sequence,11_14,2023-01-06T03:35:08.677Z,,,d,,,90,3666,completion,eR.jpg,,,287274,287274,283574,283577,283608,287307,
空白時間1 (0.5秒),canvas.Screen,11_15_0,2023-01-06T03:35:09.177Z,,,d,,,45,501,timeout,eR.jpg,,,287774,287774,287274,287275.00000000006,287307,287808,
注視(1秒),canvas.Screen,11_15_1,2023-01-06T03:35:10.194Z,,,d,,,45,1017,timeout,eR.jpg,,,288792.00000000006,288792,287774,287775.00000000006,287808,288825,
空白時間2 (0.5秒),canvas.Screen,11_15_2,2023-01-06T03:35:10.694Z,,,d,,,45,500,timeout,eR.jpg,,,289292.00000000006,289291,288792,288792.00000000006,288825,289325,
刺激提示,canvas.Screen,11_15_3,2023-01-06T03:35:11.301Z,,,d,true,d,45,600,response,eR.jpg,d,keypress(j),289899,289891,289291,289292.00000000006,289325,289942,
フィードバック(0.5秒),canvas.Screen,11_15_4,2023-01-06T03:35:11.811Z,,,d,,,45,499,timeout,eR.jpg,,,290409,290408,289907,289899,289942,290441,
トライアル,flow.Sequence,11_15,2023-01-06T03:35:11.811Z,,,d,,,45,3101,completion,eR.jpg,,,290409,290408,287274,287274,287307,290441,
タスクのセット,flow.Loop,11,2023-01-06T03:35:11.812Z,,,,,,,53016,completion,,,,290409,290408,237358,237359,237392,290441,
空白時間1 (0.5秒),canvas.Screen,12_0_0,2023-01-06T03:35:12.310Z,,,b,,,0,500,timeout,e.jpg,,,290908,290907,290408,290409,290441,290941,
注視(1秒),canvas.Screen,12_0_1,2023-01-06T03:35:13.328Z,,,b,,,0,1017,timeout,e.jpg,,,291925,291925,290907,290908,290941,291958,
空白時間2 (0.5秒),canvas.Screen,12_0_2,2023-01-06T03:35:13.827Z,,,b,,,0,500,timeout,e.jpg,,,292425,292425,291925,291925,291958,292458,
刺激提示,canvas.Screen,12_0_3,2023-01-06T03:35:14.307Z,,,b,true,b,0,473,response,e.jpg,b,keypress(f),292904,292898,292425,292425,292458,292957,
フィードバック(0.5秒),canvas.Screen,12_0_4,2023-01-06T03:35:14.827Z,,,b,,,0,500,timeout,e.jpg,,,293425,293425,292924,292905.00000000006,292957,293457,
トライアル,flow.Sequence,12_0,2023-01-06T03:35:14.828Z,,,b,,,0,2984,completion,e.jpg,,,293426,293425,290408,290409,290441,293457,
空白時間1 (0.5秒),canvas.Screen,12_1_0,2023-01-06T03:35:15.328Z,,,b,,,180,501,timeout,e.jpg,,,293925,293925,293425,293426,293457,293958,
注視(1秒),canvas.Screen,12_1_1,2023-01-06T03:35:16.344Z,,,b,,,180,1016,timeout,e.jpg,,,294941.00000000006,294941,293925,293926,293958,294974,
空白時間2 (0.5秒),canvas.Screen,12_1_2,2023-01-06T03:35:16.845Z,,,b,,,180,500,timeout,e.jpg,,,295443,295440,294941,294942,294974,295474,
刺激提示,canvas.Screen,12_1_3,2023-01-06T03:35:17.562Z,,,b,false,b,180,711,response,e.jpg,d,keypress(j),296160,296151,295440,295443,295474,296208,
フィードバック(0.5秒),canvas.Screen,12_1_4,2023-01-06T03:35:18.079Z,,,b,,,180,499,timeout,e.jpg,,,296677,296674,296174,296161,296208,296707,
トライアル,flow.Sequence,12_1,2023-01-06T03:35:18.080Z,,,b,,,180,3217,completion,e.jpg,,,296677,296674,293425,293426,293457,296707,
空白時間1 (0.5秒),canvas.Screen,12_2_0,2023-01-06T03:35:18.577Z,,,d,,,0,501,timeout,eR.jpg,,,297174,297174,296674,296677,296707,297208,
注視(1秒),canvas.Screen,12_2_1,2023-01-06T03:35:19.593Z,,,d,,,0,1017,timeout,eR.jpg,,,298191.00000000006,298190,297174,297174,297208,298225,
空白時間2 (0.5秒),canvas.Screen,12_2_2,2023-01-06T03:35:20.094Z,,,d,,,0,500,timeout,eR.jpg,,,298692,298691,298190,298191.00000000006,298225,298725,
刺激提示,canvas.Screen,12_2_3,2023-01-06T03:35:20.880Z,,,d,true,d,0,779,response,eR.jpg,d,keypress(j),299477.00000000006,299470,298691,298692,298725,299525,
フィードバック(0.5秒),canvas.Screen,12_2_4,2023-01-06T03:35:21.394Z,,,d,,,0,499,timeout,eR.jpg,,,299992,299991,299491,299478,299525,300024,
トライアル,flow.Sequence,12_2,2023-01-06T03:35:21.394Z,,,d,,,0,3284,completion,eR.jpg,,,299992,299991,296674,296677,296707,300024,
空白時間1 (0.5秒),canvas.Screen,12_3_0,2023-01-06T03:35:21.894Z,,,b,,,225,501,timeout,e.jpg,,,300491,300491,299991,299992,300024,300525,
注視(1秒),canvas.Screen,12_3_1,2023-01-06T03:35:22.877Z,,,b,,,225,982,timeout,e.jpg,,,301474,301474,300491,300492,300525,301507,
空白時間2 (0.5秒),canvas.Screen,12_3_2,2023-01-06T03:35:23.377Z,,,b,,,225,501,timeout,e.jpg,,,301974,301974,301474,301474,301507,302008,
刺激提示,canvas.Screen,12_3_3,2023-01-06T03:35:25.604Z,,,b,true,b,225,2219,response,e.jpg,b,keypress(f),304202,304193,301974,301974,302008,304241,
フィードバック(0.5秒),canvas.Screen,12_3_4,2023-01-06T03:35:26.112Z,,,b,,,225,500,timeout,e.jpg,,,304710,304707,304208,304202,304241,304741,
トライアル,flow.Sequence,12_3,2023-01-06T03:35:26.112Z,,,b,,,225,4683,completion,e.jpg,,,304710,304707,299991,299992,300024,304741,
空白時間1 (0.5秒),canvas.Screen,12_4_0,2023-01-06T03:35:26.611Z,,,d,,,225,500,timeout,eR.jpg,,,305209,305208,304707,304710,304741,305241,
注視(1秒),canvas.Screen,12_4_1,2023-01-06T03:35:27.627Z,,,d,,,225,1017,timeout,eR.jpg,,,306225,306224,305208,305209,305241,306258,
空白時間2 (0.5秒),canvas.Screen,12_4_2,2023-01-06T03:35:28.128Z,,,d,,,225,500,timeout,eR.jpg,,,306725,306725,306224,306225,306258,306758,
刺激提示,canvas.Screen,12_4_3,2023-01-06T03:35:28.753Z,,,d,true,d,225,619,response,eR.jpg,d,keypress(j),307351,307344,306725,306725,306758,307391,
フィードバック(0.5秒),canvas.Screen,12_4_4,2023-01-06T03:35:29.261Z,,,d,,,225,500,timeout,eR.jpg,,,307858,307858,307358,307351,307391,307891,
トライアル,flow.Sequence,12_4,2023-01-06T03:35:29.261Z,,,d,,,225,3117,completion,eR.jpg,,,307859,307858,304707,304710,304741,307891,
空白時間1 (0.5秒),canvas.Screen,12_5_0,2023-01-06T03:35:29.761Z,,,b,,,135,499,timeout,e.jpg,,,308358,308358,307858,307859,307891,308390,
注視(1秒),canvas.Screen,12_5_1,2023-01-06T03:35:30.744Z,,,b,,,135,984,timeout,e.jpg,,,309342,309341,308358,308358,308390,309374,
空白時間2 (0.5秒),canvas.Screen,12_5_2,2023-01-06T03:35:31.243Z,,,b,,,135,501,timeout,e.jpg,,,309841,309840,309341,309342,309374,309875,
刺激提示,canvas.Screen,12_5_3,2023-01-06T03:35:31.888Z,,,b,true,b,135,639,response,e.jpg,b,keypress(f),310486,310479,309840,309841,309875,310524,
フィードバック(0.5秒),canvas.Screen,12_5_4,2023-01-06T03:35:32.394Z,,,b,,,135,500,timeout,e.jpg,,,310992,310991,310491,310487,310524,311024,
トライアル,flow.Sequence,12_5,2023-01-06T03:35:32.395Z,,,b,,,135,3100,completion,e.jpg,,,310992,310991,307858,307859,307891,311024,
空白時間1 (0.5秒),canvas.Screen,12_6_0,2023-01-06T03:35:32.894Z,,,d,,,45,500,timeout,eR.jpg,,,311491,311491,310991,310992,311024,311524,
注視(1秒),canvas.Screen,12_6_1,2023-01-06T03:35:33.877Z,,,d,,,45,983,timeout,eR.jpg,,,312474,312474,311491,311491,311524,312507,
空白時間2 (0.5秒),canvas.Screen,12_6_2,2023-01-06T03:35:34.377Z,,,d,,,45,501,timeout,eR.jpg,,,312974,312974,312474,312474,312507,313008,
刺激提示,canvas.Screen,12_6_3,2023-01-06T03:35:34.983Z,,,d,true,d,45,599,response,eR.jpg,d,keypress(j),313580,313573,312974,312974,313008,313624,
フィードバック(0.5秒),canvas.Screen,12_6_4,2023-01-06T03:35:35.494Z,,,d,,,45,500,timeout,eR.jpg,,,314091,314091,313598,313581,313624,314124,
トライアル,flow.Sequence,12_6,2023-01-06T03:35:35.495Z,,,d,,,45,3067,completion,eR.jpg,,,314092,314091,310991,310992,311024,314124,
空白時間1 (0.5秒),canvas.Screen,12_7_0,2023-01-06T03:35:35.994Z,,,b,,,45,500,timeout,e.jpg,,,314592,314591,314091,314092,314124,314624,
注視(1秒),canvas.Screen,12_7_1,2023-01-06T03:35:36.977Z,,,b,,,45,983,timeout,e.jpg,,,315574,315574,314591,314592,314624,315607,
空白時間2 (0.5秒),canvas.Screen,12_7_2,2023-01-06T03:35:37.477Z,,,b,,,45,500,timeout,e.jpg,,,316074,316074,315574,315574,315607,316107,
刺激提示,canvas.Screen,12_7_3,2023-01-06T03:35:37.963Z,,,b,true,b,45,478,response,e.jpg,b,keypress(f),316560,316552,316074,316074,316107,316608,
フィードバック(0.5秒),canvas.Screen,12_7_4,2023-01-06T03:35:38.477Z,,,b,,,45,499,timeout,e.jpg,,,317074,317074,316574,316561,316608,317107,
トライアル,flow.Sequence,12_7,2023-01-06T03:35:38.477Z,,,b,,,45,2950,completion,e.jpg,,,317074,317074,314091,314092,314124,317107,
空白時間1 (0.5秒),canvas.Screen,12_8_0,2023-01-06T03:35:38.977Z,,,d,,,180,501,timeout,eR.jpg,,,317574,317574,317074,317074,317107,317608,
注視(1秒),canvas.Screen,12_8_1,2023-01-06T03:35:39.993Z,,,d,,,180,1016,timeout,eR.jpg,,,318591,318590,317574,317574,317608,318624,
空白時間2 (0.5秒),canvas.Screen,12_8_2,2023-01-06T03:35:40.494Z,,,d,,,180,500,timeout,eR.jpg,,,319091,319090,318590,318591,318624,319124,
刺激提示,canvas.Screen,12_8_3,2023-01-06T03:35:41.134Z,,,d,true,d,180,634,response,eR.jpg,d,keypress(j),319731,319724,319090,319091,319124,319774,
フィードバック(0.5秒),canvas.Screen,12_8_4,2023-01-06T03:35:41.644Z,,,d,,,180,500,timeout,eR.jpg,,,320241,320240,319741,319732,319774,320274,
トライアル,flow.Sequence,12_8,2023-01-06T03:35:41.644Z,,,d,,,180,3133,completion,eR.jpg,,,320241,320240,317074,317074,317107,320274,
空白時間1 (0.5秒),canvas.Screen,12_9_0,2023-01-06T03:35:42.144Z,,,b,,,90,500,timeout,e.jpg,,,320742,320741,320240,320241,320274,320774,
注視(1秒),canvas.Screen,12_9_1,2023-01-06T03:35:43.161Z,,,b,,,90,1017,timeout,e.jpg,,,321758,321758,320741,320742,320774,321791,
空白時間2 (0.5秒),canvas.Screen,12_9_2,2023-01-06T03:35:43.660Z,,,b,,,90,500,timeout,e.jpg,,,322258,322257,321758,321758,321791,322291,
刺激提示,canvas.Screen,12_9_3,2023-01-06T03:35:44.253Z,,,b,true,b,90,586,response,e.jpg,b,keypress(f),322850,322843,322257,322258,322291,322891,
フィードバック(0.5秒),canvas.Screen,12_9_4,2023-01-06T03:35:44.761Z,,,b,,,90,500,timeout,e.jpg,,,323358,323358,322857,322851,322891,323391,
トライアル,flow.Sequence,12_9,2023-01-06T03:35:44.761Z,,,b,,,90,3084,completion,e.jpg,,,323358,323358,320240,320241,320274,323391,
空白時間1 (0.5秒),canvas.Screen,12_10_0,2023-01-06T03:35:45.264Z,,,b,,,315,500,timeout,e.jpg,,,323861,323858,323358,323358,323391,323891,
注視(1秒),canvas.Screen,12_10_1,2023-01-06T03:35:46.277Z,,,b,,,315,1016,timeout,e.jpg,,,324874,324873,323858,323861,323891,324907,
空白時間2 (0.5秒),canvas.Screen,12_10_2,2023-01-06T03:35:46.779Z,,,b,,,315,501,timeout,e.jpg,,,325376.00000000006,325374,324873,324874,324907,325408,
刺激提示,canvas.Screen,12_10_3,2023-01-06T03:35:47.201Z,,,b,true,b,315,413.0000000000582,response,e.jpg,b,keypress(f),325798,325787.00000000006,325374,325376.00000000006,325408,325840,
フィードバック(0.5秒),canvas.Screen,12_10_4,2023-01-06T03:35:47.713Z,,,b,,,315,500,timeout,e.jpg,,,326310,326307,325807,325799.00000000006,325840,326340,
トライアル,flow.Sequence,12_10,2023-01-06T03:35:47.713Z,,,b,,,315,2916,completion,e.jpg,,,326310,326307,323358,323358,323391,326340,
空白時間1 (0.5秒),canvas.Screen,12_11_0,2023-01-06T03:35:48.211Z,,,d,,,135,500,timeout,eR.jpg,,,326808,326808,326307,326311,326340,326840,
注視(1秒),canvas.Screen,12_11_1,2023-01-06T03:35:49.195Z,,,d,,,135,984,timeout,eR.jpg,,,327792.00000000006,327791,326808,326808,326840,327824,
空白時間2 (0.5秒),canvas.Screen,12_11_2,2023-01-06T03:35:49.694Z,,,d,,,135,500,timeout,eR.jpg,,,328291,328291,327791,327792.00000000006,327824,328324,
刺激提示,canvas.Screen,12_11_3,2023-01-06T03:35:50.338Z,,,d,true,d,135,637,response,eR.jpg,d,keypress(j),328935,328928,328291,328291,328324,328974,
フィードバック(0.5秒),canvas.Screen,12_11_4,2023-01-06T03:35:50.843Z,,,d,,,135,500,timeout,eR.jpg,,,329440,329440,328940,328936,328974,329474,
トライアル,flow.Sequence,12_11,2023-01-06T03:35:50.844Z,,,d,,,135,3100,completion,eR.jpg,,,329440,329440,326307,326311,326340,329474,
空白時間1 (0.5秒),canvas.Screen,12_12_0,2023-01-06T03:35:51.345Z,,,d,,,90,500,timeout,eR.jpg,,,329942,329941,329440,329441.00000000006,329474,329974,
注視(1秒),canvas.Screen,12_12_1,2023-01-06T03:35:52.361Z,,,d,,,90,1017,timeout,eR.jpg,,,330958,330957,329941,329942,329974,330991,
空白時間2 (0.5秒),canvas.Screen,12_12_2,2023-01-06T03:35:52.861Z,,,d,,,90,500,timeout,eR.jpg,,,331458,331458,330957,330958,330991,331491,
刺激提示,canvas.Screen,12_12_3,2023-01-06T03:35:53.584Z,,,d,true,d,90,716.0000000000582,response,eR.jpg,d,keypress(j),332181,332174.00000000006,331458,331458,331491,332224,
フィードバック(0.5秒),canvas.Screen,12_12_4,2023-01-06T03:35:54.094Z,,,d,,,90,500,timeout,eR.jpg,,,332691.00000000006,332691,332191,332182,332224,332724,
トライアル,flow.Sequence,12_12,2023-01-06T03:35:54.094Z,,,d,,,90,3217,completion,eR.jpg,,,332691.00000000006,332691,329440,329441.00000000006,329474,332724,
空白時間1 (0.5秒),canvas.Screen,12_13_0,2023-01-06T03:35:54.594Z,,,b,,,270,500,timeout,e.jpg,,,333191.00000000006,333191,332691,332692,332724,333224,
注視(1秒),canvas.Screen,12_13_1,2023-01-06T03:35:55.611Z,,,b,,,270,1016,timeout,e.jpg,,,334208,334208,333191,333191.00000000006,333224,334240,
空白時間2 (0.5秒),canvas.Screen,12_13_2,2023-01-06T03:35:56.110Z,,,b,,,270,501,timeout,e.jpg,,,334707,334707,334208,334208,334240,334741,
刺激提示,canvas.Screen,12_13_3,2023-01-06T03:35:56.658Z,,,b,true,b,270,540,response,e.jpg,b,keypress(f),335255,335247,334707,334707,334741,335308,
フィードバック(0.5秒),canvas.Screen,12_13_4,2023-01-06T03:35:57.177Z,,,b,,,270,499,timeout,e.jpg,,,335774,335774,335275,335256,335308,335807,
トライアル,flow.Sequence,12_13,2023-01-06T03:35:57.178Z,,,b,,,270,3050,completion,e.jpg,,,335775.00000000006,335774,332691,332691.00000000006,332724,335807,
空白時間1 (0.5秒),canvas.Screen,12_14_0,2023-01-06T03:35:57.677Z,,,d,,,315,500,timeout,eR.jpg,,,336274,336274,335774,335775.00000000006,335807,336307,
注視(1秒),canvas.Screen,12_14_1,2023-01-06T03:35:58.661Z,,,d,,,315,984,timeout,eR.jpg,,,337258,337258,336274,336274,336307,337291,
空白時間2 (0.5秒),canvas.Screen,12_14_2,2023-01-06T03:35:59.161Z,,,d,,,315,500,timeout,eR.jpg,,,337758,337757,337258,337258,337291,337791,
刺激提示,canvas.Screen,12_14_3,2023-01-06T03:35:59.777Z,,,d,true,d,315,609,response,eR.jpg,d,keypress(j),338373,338366,337757,337758,337791,338424,
フィードバック(0.5秒),canvas.Screen,12_14_4,2023-01-06T03:36:00.294Z,,,d,,,315,500,timeout,eR.jpg,,,338891,338890,338390,338375,338424,338924,
トライアル,flow.Sequence,12_14,2023-01-06T03:36:00.294Z,,,d,,,315,3083,completion,eR.jpg,,,338891,338890,335774,335775.00000000006,335807,338924,
空白時間1 (0.5秒),canvas.Screen,12_15_0,2023-01-06T03:36:00.795Z,,,d,,,270,500,timeout,eR.jpg,,,339391,339391,338890,338891,338924,339424,
注視(1秒),canvas.Screen,12_15_1,2023-01-06T03:36:01.810Z,,,d,,,270,1016,timeout,eR.jpg,,,340407,340407,339391,339392,339424,340440,
空白時間2 (0.5秒),canvas.Screen,12_15_2,2023-01-06T03:36:02.310Z,,,d,,,270,501,timeout,eR.jpg,,,340907,340907,340407,340407,340440,340941,
刺激提示,canvas.Screen,12_15_3,2023-01-06T03:36:02.936Z,,,d,true,d,270,618.0000000000582,response,eR.jpg,d,keypress(j),341533,341525.00000000006,340907,340907,340941,341574,
フィードバック(0.5秒),canvas.Screen,12_15_4,2023-01-06T03:36:03.444Z,,,d,,,270,500,timeout,eR.jpg,,,342040,342040,341541,341534,341574,342074,
トライアル,flow.Sequence,12_15,2023-01-06T03:36:03.444Z,,,d,,,270,3116,completion,eR.jpg,,,342041,342040,338890,338891,338924,342074,
タスクのセット,flow.Loop,12,2023-01-06T03:36:03.444Z,,,,,,,51599,completion,,,,342041,342040,290408,290409,290441,342074,
空白時間1 (0.5秒),canvas.Screen,13_0_0,2023-01-06T03:36:03.945Z,,,b,,,0,500,timeout,e.jpg,,,342541,342541,342040,342041,342074,342574,
注視(1秒),canvas.Screen,13_0_1,2023-01-06T03:36:04.961Z,,,b,,,0,1017,timeout,e.jpg,,,343558,343557,342541,342542.00000000006,342574,343591,
空白時間2 (0.5秒),canvas.Screen,13_0_2,2023-01-06T03:36:05.460Z,,,b,,,0,499,timeout,e.jpg,,,344057,344057,343557,343558,343591,344090,
刺激提示,canvas.Screen,13_0_3,2023-01-06T03:36:05.985Z,,,b,true,b,0,515,response,e.jpg,b,keypress(f),344582,344572,344057,344057,344090,344625,
フィードバック(0.5秒),canvas.Screen,13_0_4,2023-01-06T03:36:06.498Z,,,b,,,0,499,timeout,e.jpg,,,345095,345091,344591,344583,344625,345124,
トライアル,flow.Sequence,13_0,2023-01-06T03:36:06.498Z,,,b,,,0,3017,completion,e.jpg,,,345095,345091,342040,342041,342074,345124,
空白時間1 (0.5秒),canvas.Screen,13_1_0,2023-01-06T03:36:06.995Z,,,d,,,0,500,timeout,eR.jpg,,,345591,345591,345091,345095,345124,345624,
注視(1秒),canvas.Screen,13_1_1,2023-01-06T03:36:08.011Z,,,d,,,0,1016,timeout,eR.jpg,,,346607,346607,345591,345591,345624,346640,
空白時間2 (0.5秒),canvas.Screen,13_1_2,2023-01-06T03:36:08.510Z,,,d,,,0,500,timeout,eR.jpg,,,347107,347107,346607,346608,346640,347140,
刺激提示,canvas.Screen,13_1_3,2023-01-06T03:36:09.045Z,,,d,true,d,0,527,response,eR.jpg,d,keypress(j),347642,347634,347107,347107,347140,347691,
フィードバック(0.5秒),canvas.Screen,13_1_4,2023-01-06T03:36:09.561Z,,,d,,,0,500,timeout,eR.jpg,,,348158,348157,347658,347642,347691,348191,
トライアル,flow.Sequence,13_1,2023-01-06T03:36:09.561Z,,,d,,,0,3033,completion,eR.jpg,,,348158,348157,345091,345095,345124,348191,
空白時間1 (0.5秒),canvas.Screen,13_2_0,2023-01-06T03:36:10.061Z,,,d,,,180,499,timeout,eR.jpg,,,348658,348657,348157,348158,348191,348690,
注視(1秒),canvas.Screen,13_2_1,2023-01-06T03:36:11.077Z,,,d,,,180,1017,timeout,eR.jpg,,,349674.00000000006,349674,348657,348658,348690,349707,
空白時間2 (0.5秒),canvas.Screen,13_2_2,2023-01-06T03:36:11.579Z,,,d,,,180,500,timeout,eR.jpg,,,350176,350173,349674,349674.00000000006,349707,350207,
刺激提示,canvas.Screen,13_2_3,2023-01-06T03:36:12.158Z,,,d,true,d,180,571,response,eR.jpg,d,keypress(j),350754,350744,350173,350176,350207,350807,
フィードバック(0.5秒),canvas.Screen,13_2_4,2023-01-06T03:36:12.680Z,,,d,,,180,500,timeout,eR.jpg,,,351276,351273,350773,350755,350807,351307,
トライアル,flow.Sequence,13_2,2023-01-06T03:36:12.680Z,,,d,,,180,3082,completion,eR.jpg,,,351276,351273,348157,348158,348191,351307,
空白時間1 (0.5秒),canvas.Screen,13_3_0,2023-01-06T03:36:13.177Z,,,d,,,45,499,timeout,eR.jpg,,,351774,351773,351273,351277,351307,351806,
注視(1秒),canvas.Screen,13_3_1,2023-01-06T03:36:14.161Z,,,d,,,45,985,timeout,eR.jpg,,,352758,352757,351773,351774,351806,352791,
空白時間2 (0.5秒),canvas.Screen,13_3_2,2023-01-06T03:36:14.661Z,,,d,,,45,499,timeout,eR.jpg,,,353258,353257,352757,352758,352791,353290,
刺激提示,canvas.Screen,13_3_3,2023-01-06T03:36:15.545Z,,,d,true,d,45,877,response,eR.jpg,d,keypress(j),354141,354134,353257,353258,353290,354204,
フィードバック(0.5秒),canvas.Screen,13_3_4,2023-01-06T03:36:16.061Z,,,d,,,45,487,timeout,eR.jpg,,,354657,354657,354158,354142,354204,354691,
トライアル,flow.Sequence,13_3,2023-01-06T03:36:16.061Z,,,d,,,45,3350,completion,eR.jpg,,,354658,354657,351273,351277,351307,354691,
空白時間1 (0.5秒),canvas.Screen,13_4_0,2023-01-06T03:36:16.561Z,,,d,,,90,499,timeout,eR.jpg,,,355158,355157,354657,354658,354691,355190,
注視(1秒),canvas.Screen,13_4_1,2023-01-06T03:36:17.545Z,,,d,,,90,983,timeout,eR.jpg,,,356141,356141,355157,355158,355190,356173,
空白時間2 (0.5秒),canvas.Screen,13_4_2,2023-01-06T03:36:18.044Z,,,d,,,90,500,timeout,eR.jpg,,,356640,356640,356141,356141,356173,356673,
刺激提示,canvas.Screen,13_4_3,2023-01-06T03:36:18.631Z,,,d,true,d,90,580,response,eR.jpg,d,keypress(j),357228,357220,356640,356641,356673,357273,
フィードバック(0.5秒),canvas.Screen,13_4_4,2023-01-06T03:36:19.145Z,,,d,,,90,501,timeout,eR.jpg,,,357741,357741,357240,357228,357273,357774,
トライアル,flow.Sequence,13_4,2023-01-06T03:36:19.146Z,,,d,,,90,3050,completion,eR.jpg,,,357742,357741,354657,354658,354691,357774,
空白時間1 (0.5秒),canvas.Screen,13_5_0,2023-01-06T03:36:19.644Z,,,d,,,270,499,timeout,eR.jpg,,,358240,358240,357741,357742,357774,358273,
注視(1秒),canvas.Screen,13_5_1,2023-01-06T03:36:20.628Z,,,d,,,270,984,timeout,eR.jpg,,,359224,359224,358240,358241,358273,359257,
空白時間2 (0.5秒),canvas.Screen,13_5_2,2023-01-06T03:36:21.128Z,,,d,,,270,500,timeout,eR.jpg,,,359724,359724,359224,359225,359257,359757,
刺激提示,canvas.Screen,13_5_3,2023-01-06T03:36:21.632Z,,,d,true,d,270,496,response,eR.jpg,d,keypress(j),360228,360220,359724,359725,359757,360274,
フィードバック(0.5秒),canvas.Screen,13_5_4,2023-01-06T03:36:22.145Z,,,d,,,270,500,timeout,eR.jpg,,,360741,360741,360240,360229,360274,360774,
トライアル,flow.Sequence,13_5,2023-01-06T03:36:22.145Z,,,d,,,270,2967,completion,eR.jpg,,,360741,360741,357741,357742,357774,360774,
空白時間1 (0.5秒),canvas.Screen,13_6_0,2023-01-06T03:36:22.644Z,,,b,,,225,499,timeout,e.jpg,,,361240,361240,360741,360742,360774,361273,
注視(1秒),canvas.Screen,13_6_1,2023-01-06T03:36:23.630Z,,,b,,,225,984,timeout,e.jpg,,,362226,362224,361240,361240,361273,362257,
空白時間2 (0.5秒),canvas.Screen,13_6_2,2023-01-06T03:36:24.130Z,,,b,,,225,500,timeout,e.jpg,,,362726,362724,362224,362226,362257,362757,
刺激提示,canvas.Screen,13_6_3,2023-01-06T03:36:24.649Z,,,b,false,b,225,512,response,e.jpg,d,keypress(j),363246,363236,362724,362726,362757,363291,
フィードバック(0.5秒),canvas.Screen,13_6_4,2023-01-06T03:36:25.164Z,,,b,,,225,500,timeout,e.jpg,,,363760,363757,363257,363246,363291,363791,
トライアル,flow.Sequence,13_6,2023-01-06T03:36:25.164Z,,,b,,,225,2983,completion,e.jpg,,,363760,363757,360741,360741,360774,363791,
空白時間1 (0.5秒),canvas.Screen,13_7_0,2023-01-06T03:36:25.661Z,,,d,,,315,500,timeout,eR.jpg,,,364258,364257,363757,363761,363791,364291,
注視(1秒),canvas.Screen,13_7_1,2023-01-06T03:36:26.677Z,,,d,,,315,1015,timeout,eR.jpg,,,365274,365273,364257,364258,364291,365306,
空白時間2 (0.5秒),canvas.Screen,13_7_2,2023-01-06T03:36:27.177Z,,,d,,,315,501,timeout,eR.jpg,,,365773,365773,365273,365274,365306,365807,
刺激提示,canvas.Screen,13_7_3,2023-01-06T03:36:27.883Z,,,d,true,d,315,698,response,eR.jpg,d,keypress(j),366479,366471,365773,365774,365807,366524,
フィードバック(0.5秒),canvas.Screen,13_7_4,2023-01-06T03:36:28.395Z,,,d,,,315,499,timeout,eR.jpg,,,366991,366991,366491,366480,366524,367023,
トライアル,flow.Sequence,13_7,2023-01-06T03:36:28.395Z,,,d,,,315,3200,completion,eR.jpg,,,366991,366991,363757,363760,363791,367023,
空白時間1 (0.5秒),canvas.Screen,13_8_0,2023-01-06T03:36:28.895Z,,,b,,,45,500,timeout,e.jpg,,,367491,367491,366991,366991,367023,367523,
注視(1秒),canvas.Screen,13_8_1,2023-01-06T03:36:29.910Z,,,b,,,45,1017,timeout,e.jpg,,,368507,368506,367491,367491,367523,368540,
空白時間2 (0.5秒),canvas.Screen,13_8_2,2023-01-06T03:36:30.411Z,,,b,,,45,500,timeout,e.jpg,,,369008,369007,368506,368507,368540,369040,
刺激提示,canvas.Screen,13_8_3,2023-01-06T03:36:30.873Z,,,b,true,b,45,454,response,e.jpg,b,keypress(f),369469,369461,369007,369008,369040,369524,
フィードバック(0.5秒),canvas.Screen,13_8_4,2023-01-06T03:36:31.395Z,,,b,,,45,500,timeout,e.jpg,,,369991,369991,369490,369470,369524,370024,
トライアル,flow.Sequence,13_8,2023-01-06T03:36:31.395Z,,,b,,,45,2968,completion,e.jpg,,,369991,369991,366991,366991,367023,370024,
空白時間1 (0.5秒),canvas.Screen,13_9_0,2023-01-06T03:36:31.895Z,,,d,,,225,499,timeout,eR.jpg,,,370491,370490,369991,369991,370024,370523,
注視(1秒),canvas.Screen,13_9_1,2023-01-06T03:36:32.911Z,,,d,,,225,1017,timeout,eR.jpg,,,371507,371506,370490,370491,370523,371540,
空白時間2 (0.5秒),canvas.Screen,13_9_2,2023-01-06T03:36:33.411Z,,,d,,,225,500,timeout,eR.jpg,,,372007,372006,371506,371507,371540,372040,
刺激提示,canvas.Screen,13_9_3,2023-01-06T03:36:33.997Z,,,d,true,d,225,579,response,eR.jpg,d,keypress(j),372593,372585,372006,372007,372040,372640,
フィードバック(0.5秒),canvas.Screen,13_9_4,2023-01-06T03:36:34.511Z,,,d,,,225,501,timeout,eR.jpg,,,373107,373106,372607,372594,372640,373141,
トライアル,flow.Sequence,13_9,2023-01-06T03:36:34.511Z,,,d,,,225,3082,completion,eR.jpg,,,373107,373106,369991,369991,370024,373141,
空白時間1 (0.5秒),canvas.Screen,13_10_0,2023-01-06T03:36:35.011Z,,,d,,,135,499,timeout,eR.jpg,,,373607,373606,373106,373107,373141,373640,
注視(1秒),canvas.Screen,13_10_1,2023-01-06T03:36:36.028Z,,,d,,,135,1017,timeout,eR.jpg,,,374624,374624,373606,373607,373640,374657,
空白時間2 (0.5秒),canvas.Screen,13_10_2,2023-01-06T03:36:36.527Z,,,d,,,135,500,timeout,eR.jpg,,,375123,375123,374624,374624,374657,375157,
刺激提示,canvas.Screen,13_10_3,2023-01-06T03:36:37.423Z,,,d,true,d,135,888,response,eR.jpg,d,keypress(j),376019,376011,375123,375123,375157,376073,
フィードバック(0.5秒),canvas.Screen,13_10_4,2023-01-06T03:36:37.945Z,,,d,,,135,500,timeout,eR.jpg,,,376541,376540,376044,376020,376073,376573,
トライアル,flow.Sequence,13_10,2023-01-06T03:36:37.946Z,,,d,,,135,3399,completion,eR.jpg,,,376542.00000000006,376540,373106,373107,373141,376573,
空白時間1 (0.5秒),canvas.Screen,13_11_0,2023-01-06T03:36:38.444Z,,,b,,,270,500,timeout,e.jpg,,,377040,377040,376540,376542.00000000006,376573,377073,
注視(1秒),canvas.Screen,13_11_1,2023-01-06T03:36:39.428Z,,,b,,,270,984,timeout,e.jpg,,,378024,378024,377040,377040,377073,378057,
空白時間2 (0.5秒),canvas.Screen,13_11_2,2023-01-06T03:36:39.928Z,,,b,,,270,499,timeout,e.jpg,,,378524,378524,378024,378024,378057,378556,
刺激提示,canvas.Screen,13_11_3,2023-01-06T03:36:40.581Z,,,b,true,b,270,645,response,e.jpg,b,keypress(f),379177,379169,378524,378524,378556,379224,
フィードバック(0.5秒),canvas.Screen,13_11_4,2023-01-06T03:36:41.094Z,,,b,,,270,500,timeout,e.jpg,,,379690,379690,379190,379178,379224,379724,
トライアル,flow.Sequence,13_11,2023-01-06T03:36:41.095Z,,,b,,,270,3117,completion,e.jpg,,,379691.00000000006,379690,376540,376542.00000000006,376573,379724,
空白時間1 (0.5秒),canvas.Screen,13_12_0,2023-01-06T03:36:41.595Z,,,b,,,90,500,timeout,e.jpg,,,380191.00000000006,380190,379690,379691.00000000006,379724,380224,
注視(1秒),canvas.Screen,13_12_1,2023-01-06T03:36:42.614Z,,,b,,,90,1016,timeout,e.jpg,,,381210,381207,380190,380191.00000000006,380224,381240,
空白時間2 (0.5秒),canvas.Screen,13_12_2,2023-01-06T03:36:43.111Z,,,b,,,90,500,timeout,e.jpg,,,381707,381706,381207,381210,381240,381740,
刺激提示,canvas.Screen,13_12_3,2023-01-06T03:36:43.693Z,,,b,true,b,90,573,response,e.jpg,b,keypress(f),382289,382279,381706,381707,381740,382340,
フィードバック(0.5秒),canvas.Screen,13_12_4,2023-01-06T03:36:44.214Z,,,b,,,90,500,timeout,e.jpg,,,382810,382807,382306,382290,382340,382840,
トライアル,flow.Sequence,13_12,2023-01-06T03:36:44.214Z,,,b,,,90,3083,completion,e.jpg,,,382810,382807,379690,379691.00000000006,379724,382840,
空白時間1 (0.5秒),canvas.Screen,13_13_0,2023-01-06T03:36:44.711Z,,,b,,,180,500,timeout,e.jpg,,,383307,383306,382807,382810,382840,383340,
注視(1秒),canvas.Screen,13_13_1,2023-01-06T03:36:45.728Z,,,b,,,180,1017,timeout,e.jpg,,,384324,384324,383306,383307,383340,384357,
空白時間2 (0.5秒),canvas.Screen,13_13_2,2023-01-06T03:36:46.228Z,,,b,,,180,500,timeout,e.jpg,,,384824,384824,384324,384324,384357,384857,
刺激提示,canvas.Screen,13_13_3,2023-01-06T03:36:47.071Z,,,b,true,b,180,834,response,e.jpg,b,keypress(f),385666,385658,384824,384824,384857,385707,
フィードバック(0.5秒),canvas.Screen,13_13_4,2023-01-06T03:36:47.577Z,,,b,,,180,499,timeout,e.jpg,,,386173,386173,385673,385667.00000000006,385707,386206,
トライアル,flow.Sequence,13_13,2023-01-06T03:36:47.578Z,,,b,,,180,3333,completion,e.jpg,,,386173,386173,382807,382810,382840,386206,
空白時間1 (0.5秒),canvas.Screen,13_14_0,2023-01-06T03:36:48.077Z,,,b,,,135,500,timeout,e.jpg,,,386673,386673,386173,386174.00000000006,386206,386706,
注視(1秒),canvas.Screen,13_14_1,2023-01-06T03:36:49.062Z,,,b,,,135,984,timeout,e.jpg,,,387657,387657,386673,386673,386706,387690,
空白時間2 (0.5秒),canvas.Screen,13_14_2,2023-01-06T03:36:49.563Z,,,b,,,135,500,timeout,e.jpg,,,388159,388157,387657,387658,387690,388190,
刺激提示,canvas.Screen,13_14_3,2023-01-06T03:36:50.060Z,,,b,true,b,135,488,response,e.jpg,b,keypress(f),388656,388645,388157,388159,388190,388706,
フィードバック(0.5秒),canvas.Screen,13_14_4,2023-01-06T03:36:50.580Z,,,b,,,135,501,timeout,e.jpg,,,389176,389173,388673,388657,388706,389207,
トライアル,flow.Sequence,13_14,2023-01-06T03:36:50.580Z,,,b,,,135,2967,completion,e.jpg,,,389176,389173,386173,386174.00000000006,386206,389207,
空白時間1 (0.5秒),canvas.Screen,13_15_0,2023-01-06T03:36:51.078Z,,,b,,,315,499,timeout,e.jpg,,,389674.00000000006,389673,389173,389176,389207,389706,
注視(1秒),canvas.Screen,13_15_1,2023-01-06T03:36:52.061Z,,,b,,,315,984,timeout,e.jpg,,,390657,390657,389673,389674.00000000006,389706,390690,
空白時間2 (0.5秒),canvas.Screen,13_15_2,2023-01-06T03:36:52.561Z,,,b,,,315,500,timeout,e.jpg,,,391157,391157,390657,390657,390690,391190,
刺激提示,canvas.Screen,13_15_3,2023-01-06T03:36:53.261Z,,,b,true,b,315,692,response,e.jpg,b,keypress(f),391857,391849,391157,391157,391190,391911,
フィードバック(0.5秒),canvas.Screen,13_15_4,2023-01-06T03:36:53.778Z,,,b,,,315,496,timeout,e.jpg,,,392374,392373,391875,391858,391911,392407,
トライアル,flow.Sequence,13_15,2023-01-06T03:36:53.778Z,,,b,,,315,3166,completion,e.jpg,,,392374,392373,389173,389176,389207,392407,
タスクのセット,flow.Loop,13,2023-01-06T03:36:53.779Z,,,,,,,50299,completion,,,,392374,392373,342040,342041,342074,392407,
休憩,canvas.Screen,14,2023-01-06T03:37:53.762Z,,,,,,,59982,timeout,,,,452357,452356,392373,392375,392407,452389,
休憩終了,html.Page,15,2023-01-06T03:38:03.743Z,,,,,,,9948,form submission,,,,462337,462337,452356,452357,452389,462388,
イントロ2,html.Page,16,2023-01-06T03:38:07.870Z,,,,,,,4076,form submission,,,,466464,466464,462356,462337,462388,466506,
イントロ3,html.Page,17,2023-01-06T03:38:20.850Z,,,,,,,12938,form submission,,,,479444,479444,466472,466464,466506,479488,
イントロ4,html.Page,18,2023-01-06T03:38:36.665Z,,,,,,,15771,form submission,,,,495259,495259,479455,479445,479488,495322,
イントロ5,html.Page,19,2023-01-06T03:38:45.964Z,,,,,,,9235,form submission,,,,504557,504557,495289,495259,495322,504605,
できるだけ早く正確に,canvas.Screen,20,2023-01-06T03:38:46.963Z,,,,,,,983,timeout,,,,505556,505555,504573,504557,504605,505588,
空白時間1 (0.5秒),canvas.Screen,21_0_0,2023-01-06T03:38:47.461Z,,,d,,,225,501,timeout,2R.jpg,,,506055,506054,505555,505556,505588,506089,
注視(1秒),canvas.Screen,21_0_1,2023-01-06T03:38:48.482Z,,,d,,,225,1016,timeout,2R.jpg,,,507076,507072,506054,506055,506089,507105,
空白時間2 (0.5秒),canvas.Screen,21_0_2,2023-01-06T03:38:48.979Z,,,d,,,225,499,timeout,2R.jpg,,,507572,507572,507072,507076,507105,507604,
刺激提示(練習),canvas.Screen,21_0_3,2023-01-06T03:38:50.149Z,,,d,true,d,225,1158,response,2R.jpg,d,keypress(j),508743,508730,507572,507573.00000000006,507604,508788,
フィードバック(0.5秒),canvas.Screen,21_0_4,2023-01-06T03:38:50.664Z,,,d,,,225,500,timeout,2R.jpg,,,509257,509254,508755,508744,508788,509288,
トライアル,flow.Sequence,21_0,2023-01-06T03:38:50.664Z,,,d,,,225,3666,completion,2R.jpg,,,509257,509254,505555,505556,505588,509288,
空白時間1 (0.5秒),canvas.Screen,21_1_0,2023-01-06T03:38:51.162Z,,,d,,,90,500,timeout,2R.jpg,,,509756,509755,509254,509258.00000000006,509288,509788,
注視(1秒),canvas.Screen,21_1_1,2023-01-06T03:38:52.146Z,,,d,,,90,984,timeout,2R.jpg,,,510739.00000000006,510739,509755,509756,509788,510772,
空白時間2 (0.5秒),canvas.Screen,21_1_2,2023-01-06T03:38:52.645Z,,,d,,,90,500,timeout,2R.jpg,,,511238,511238,510739,510739.00000000006,510772,511272,
刺激提示(練習),canvas.Screen,21_1_3,2023-01-06T03:38:54.312Z,,,d,true,d,90,1657,response,2R.jpg,d,keypress(j),512905,512895,511238,511238,511272,512955,
フィードバック(0.5秒),canvas.Screen,21_1_4,2023-01-06T03:38:54.828Z,,,d,,,90,499,timeout,2R.jpg,,,513422,513422,512921,512906.00000000006,512955,513454,
トライアル,flow.Sequence,21_1,2023-01-06T03:38:54.829Z,,,d,,,90,4134,completion,2R.jpg,,,513422,513422,509254,509257,509288,513454,
空白時間1 (0.5秒),canvas.Screen,21_2_0,2023-01-06T03:38:55.328Z,,,b,,,180,501,timeout,2.jpg,,,513921.00000000006,513921,513422,513423,513454,513955,
注視(1秒),canvas.Screen,21_2_1,2023-01-06T03:38:56.345Z,,,b,,,180,1017,timeout,2.jpg,,,514938.99999999994,514938,513921,513922,513955,514972,
空白時間2 (0.5秒),canvas.Screen,21_2_2,2023-01-06T03:38:56.845Z,,,b,,,180,502,timeout,2.jpg,,,515438.99999999994,515438,514938,514938.99999999994,514972,515474,
刺激提示(練習),canvas.Screen,21_2_3,2023-01-06T03:38:57.959Z,,,b,true,b,180,1103.0000000000582,response,2.jpg,b,keypress(f),516552,516541.00000000006,515438,515438.99999999994,515474,516605,
フィードバック(0.5秒),canvas.Screen,21_2_4,2023-01-06T03:38:58.478Z,,,b,,,180,499,timeout,2.jpg,,,517071,517071,516572,516553,516605,517104,
トライアル,flow.Sequence,21_2,2023-01-06T03:38:58.478Z,,,b,,,180,3617,completion,2.jpg,,,517072,517071,513422,513423,513454,517104,
空白時間1 (0.5秒),canvas.Screen,21_3_0,2023-01-06T03:38:58.978Z,,,b,,,45,501,timeout,2.jpg,,,517571,517571,517071,517072,517104,517605,
注視(1秒),canvas.Screen,21_3_1,2023-01-06T03:38:59.962Z,,,b,,,45,983,timeout,2.jpg,,,518556.00000000006,518555,517571,517572,517605,518588,
空白時間2 (0.5秒),canvas.Screen,21_3_2,2023-01-06T03:39:00.461Z,,,b,,,45,500,timeout,2.jpg,,,519055.00000000006,519054,518555,518556.00000000006,518588,519088,
刺激提示(練習),canvas.Screen,21_3_3,2023-01-06T03:39:01.413Z,,,b,true,b,45,941,response,2.jpg,b,keypress(f),520007.00000000006,519995,519054,519055.00000000006,519088,520063,
フィードバック(0.5秒),canvas.Screen,21_3_4,2023-01-06T03:39:01.928Z,,,b,,,45,492,timeout,2.jpg,,,520520.99999999994,520521,520025,520007.00000000006,520063,520555,
トライアル,flow.Sequence,21_3,2023-01-06T03:39:01.929Z,,,b,,,45,3417,completion,2.jpg,,,520522.00000000006,520521,517071,517072,517104,520555,
練習試行(2),flow.Loop,21,2023-01-06T03:39:01.929Z,,,,,,,14933,completion,,,,520522.00000000006,520521,505555,505556,505588,520555,
イントロ6,html.Page,22,2023-01-06T03:39:14.345Z,,,,,,,12382,form submission,,,,532938,532937,520521,520522.00000000006,520555,532972,
できるだけ早く正確に,canvas.Screen,23,2023-01-06T03:39:15.328Z,,,,,,,983,timeout,,,,533921,533921,532939,532938,532972,533955,
空白時間1 (0.5秒),canvas.Screen,24_0_0,2023-01-06T03:39:15.829Z,,,d,,,0,499,timeout,2R.jpg,,,534422,534422,533921,533922,533955,534454,
注視(1秒),canvas.Screen,24_0_1,2023-01-06T03:39:16.812Z,,,d,,,0,984,timeout,2R.jpg,,,535405,535405,534422,534422,534454,535438,
空白時間2 (0.5秒),canvas.Screen,24_0_2,2023-01-06T03:39:17.312Z,,,d,,,0,499,timeout,2R.jpg,,,535905,535905,535405,535405,535438,535937,
刺激提示,canvas.Screen,24_0_3,2023-01-06T03:39:18.057Z,,,d,true,d,0,734,response,2R.jpg,d,keypress(j),536650,536639,535905,535905,535937,536704,
フィードバック(0.5秒),canvas.Screen,24_0_4,2023-01-06T03:39:18.579Z,,,d,,,0,501,timeout,2R.jpg,,,537172,537172,536672,536650,536704,537205,
トライアル,flow.Sequence,24_0,2023-01-06T03:39:18.579Z,,,d,,,0,3217,completion,2R.jpg,,,537172,537172,533921,533922,533955,537205,
空白時間1 (0.5秒),canvas.Screen,24_1_0,2023-01-06T03:39:19.079Z,,,d,,,180,499,timeout,2R.jpg,,,537672,537672,537172,537173,537205,537704,
注視(1秒),canvas.Screen,24_1_1,2023-01-06T03:39:20.096Z,,,d,,,180,1017,timeout,2R.jpg,,,538689,538688,537672,537672,537704,538721,
空白時間2 (0.5秒),canvas.Screen,24_1_2,2023-01-06T03:39:20.595Z,,,d,,,180,500,timeout,2R.jpg,,,539188,539187,538688,538689,538721,539221,
刺激提示,canvas.Screen,24_1_3,2023-01-06T03:39:21.742Z,,,d,true,d,180,1136,response,2R.jpg,d,keypress(j),540335,540323,539187,539188,539221,540388,
フィードバック(0.5秒),canvas.Screen,24_1_4,2023-01-06T03:39:22.262Z,,,d,,,180,500,timeout,2R.jpg,,,540854,540854,540355,540335,540388,540888,
トライアル,flow.Sequence,24_1,2023-01-06T03:39:22.262Z,,,d,,,180,3649,completion,2R.jpg,,,540855,540854,537172,537173,537205,540888,
空白時間1 (0.5秒),canvas.Screen,24_2_0,2023-01-06T03:39:22.762Z,,,b,,,135,499,timeout,2.jpg,,,541355,541355,540854,540855,540888,541387,
注視(1秒),canvas.Screen,24_2_1,2023-01-06T03:39:23.746Z,,,b,,,135,985,timeout,2.jpg,,,542338,542338,541355,541355,541387,542372,
空白時間2 (0.5秒),canvas.Screen,24_2_2,2023-01-06T03:39:24.246Z,,,b,,,135,500,timeout,2.jpg,,,542838,542838,542338,542339,542372,542872,
刺激提示,canvas.Screen,24_2_3,2023-01-06T03:39:25.105Z,,,b,true,b,135,846,response,2.jpg,b,keypress(f),543698,543684,542838,542839,542872,543738,
フィードバック(0.5秒),canvas.Screen,24_2_4,2023-01-06T03:39:25.615Z,,,b,,,135,500,timeout,2.jpg,,,544208,544205,543704,543698,543738,544238,
トライアル,flow.Sequence,24_2,2023-01-06T03:39:25.615Z,,,b,,,135,3317,completion,2.jpg,,,544208,544205,540854,540855,540888,544238,
空白時間1 (0.5秒),canvas.Screen,24_3_0,2023-01-06T03:39:26.113Z,,,b,,,270,500,timeout,2.jpg,,,544705,544705,544205,544208,544238,544738,
注視(1秒),canvas.Screen,24_3_1,2023-01-06T03:39:27.128Z,,,b,,,270,1016,timeout,2.jpg,,,545721,545721,544705,544706,544738,545754,
空白時間2 (0.5秒),canvas.Screen,24_3_2,2023-01-06T03:39:27.629Z,,,b,,,270,500,timeout,2.jpg,,,546222,546221,545721,545721,545754,546254,
刺激提示,canvas.Screen,24_3_3,2023-01-06T03:39:28.275Z,,,b,true,b,270,635,response,2.jpg,b,keypress(f),546868,546856,546221,546222,546254,546921,
フィードバック(0.5秒),canvas.Screen,24_3_4,2023-01-06T03:39:28.795Z,,,b,,,270,500,timeout,2.jpg,,,547388,547387,546888,546868,546921,547421,
トライアル,flow.Sequence,24_3,2023-01-06T03:39:28.795Z,,,b,,,270,3149,completion,2.jpg,,,547388,547387,544205,544208,544238,547421,
空白時間1 (0.5秒),canvas.Screen,24_4_0,2023-01-06T03:39:29.296Z,,,b,,,225,500,timeout,2.jpg,,,547889,547888,547387,547388,547421,547921,
注視(1秒),canvas.Screen,24_4_1,2023-01-06T03:39:30.312Z,,,b,,,225,1017,timeout,2.jpg,,,548904,548904,547888,547889,547921,548938,
空白時間2 (0.5秒),canvas.Screen,24_4_2,2023-01-06T03:39:30.812Z,,,b,,,225,500,timeout,2.jpg,,,549404,549404,548904,548905,548938,549438,
刺激提示,canvas.Screen,24_4_3,2023-01-06T03:39:31.410Z,,,b,true,b,225,587,response,2.jpg,b,keypress(f),550002.0000000001,549991,549404,549404,549438,550054,
フィードバック(0.5秒),canvas.Screen,24_4_4,2023-01-06T03:39:31.928Z,,,b,,,225,501,timeout,2.jpg,,,550521,550521,550021,550003,550054,550555,
トライアル,flow.Sequence,24_4,2023-01-06T03:39:31.929Z,,,b,,,225,3100,completion,2.jpg,,,550521,550521,547387,547388,547421,550555,
空白時間1 (0.5秒),canvas.Screen,24_5_0,2023-01-06T03:39:32.429Z,,,d,,,90,499,timeout,2R.jpg,,,551022,551021,550521,550522,550555,551054,
注視(1秒),canvas.Screen,24_5_1,2023-01-06T03:39:33.446Z,,,d,,,90,1018,timeout,2R.jpg,,,552038,552038,551021,551022,551054,552072,
空白時間2 (0.5秒),canvas.Screen,24_5_2,2023-01-06T03:39:33.946Z,,,d,,,90,500,timeout,2R.jpg,,,552538,552538,552038,552039,552072,552572,
刺激提示,canvas.Screen,24_5_3,2023-01-06T03:39:34.642Z,,,d,true,d,90,685,response,2R.jpg,d,keypress(j),553235,553223,552538,552539,552572,553288,
フィードバック(0.5秒),canvas.Screen,24_5_4,2023-01-06T03:39:35.162Z,,,d,,,90,499,timeout,2R.jpg,,,553755,553755,553254,553235,553288,553787,
トライアル,flow.Sequence,24_5,2023-01-06T03:39:35.163Z,,,d,,,90,3200,completion,2R.jpg,,,553756,553755,550521,550522,550555,553787,
空白時間1 (0.5秒),canvas.Screen,24_6_0,2023-01-06T03:39:35.662Z,,,b,,,180,500,timeout,2.jpg,,,554254,554254,553755,553756,553787,554287,
注視(1秒),canvas.Screen,24_6_1,2023-01-06T03:39:36.679Z,,,b,,,180,1018,timeout,2.jpg,,,555272,555271,554254,554254,554287,555305,
空白時間2 (0.5秒),canvas.Screen,24_6_2,2023-01-06T03:39:37.179Z,,,b,,,180,499,timeout,2.jpg,,,555772,555771,555271,555272,555305,555804,
刺激提示,canvas.Screen,24_6_3,2023-01-06T03:39:37.970Z,,,b,true,b,180,781,response,2.jpg,b,keypress(f),556563,556552,555771,555772,555804,556605,
フィードバック(0.5秒),canvas.Screen,24_6_4,2023-01-06T03:39:38.479Z,,,b,,,180,500,timeout,2.jpg,,,557072,557071,556570,556564,556605,557105,
トライアル,flow.Sequence,24_6,2023-01-06T03:39:38.479Z,,,b,,,180,3284,completion,2.jpg,,,557072,557071,553755,553756,553787,557105,
空白時間1 (0.5秒),canvas.Screen,24_7_0,2023-01-06T03:39:38.979Z,,,d,,,225,499,timeout,2R.jpg,,,557572,557571,557071,557072,557105,557604,
注視(1秒),canvas.Screen,24_7_1,2023-01-06T03:39:39.995Z,,,d,,,225,1017,timeout,2R.jpg,,,558588,558587,557571,557572,557604,558621,
空白時間2 (0.5秒),canvas.Screen,24_7_2,2023-01-06T03:39:40.496Z,,,d,,,225,500,timeout,2R.jpg,,,559088,559088,558587,558588,558621,559121,
刺激提示,canvas.Screen,24_7_3,2023-01-06T03:39:41.356Z,,,d,true,d,225,849,response,2R.jpg,d,keypress(j),559949,559937,559088,559088,559121,559987,
フィードバック(0.5秒),canvas.Screen,24_7_4,2023-01-06T03:39:41.862Z,,,d,,,225,500,timeout,2R.jpg,,,560454.0000000001,560454,559954,559949,559987,560487,
トライアル,flow.Sequence,24_7,2023-01-06T03:39:41.862Z,,,d,,,225,3349,completion,2R.jpg,,,560454.0000000001,560454,557071,557072,557105,560487,
空白時間1 (0.5秒),canvas.Screen,24_8_0,2023-01-06T03:39:42.362Z,,,b,,,315,500,timeout,2.jpg,,,560954.0000000001,560954,560454,560454.0000000001,560487,560987,
注視(1秒),canvas.Screen,24_8_1,2023-01-06T03:39:43.346Z,,,b,,,315,984,timeout,2.jpg,,,561938,561938,560954,560954.0000000001,560987,561971,
空白時間2 (0.5秒),canvas.Screen,24_8_2,2023-01-06T03:39:43.846Z,,,b,,,315,500,timeout,2.jpg,,,562438,562438,561938,561938,561971,562471,
刺激提示,canvas.Screen,24_8_3,2023-01-06T03:39:44.606Z,,,b,true,b,315,749,response,2.jpg,b,keypress(f),563199,563187,562438,562438,562471,563238,
フィードバック(0.5秒),canvas.Screen,24_8_4,2023-01-06T03:39:45.111Z,,,b,,,315,500,timeout,2.jpg,,,563704.0000000001,563704,563204,563199,563238,563738,
トライアル,flow.Sequence,24_8,2023-01-06T03:39:45.112Z,,,b,,,315,3217,completion,2.jpg,,,563704.0000000001,563704,560454,560454.0000000001,560487,563738,
空白時間1 (0.5秒),canvas.Screen,24_9_0,2023-01-06T03:39:45.613Z,,,d,,,135,499,timeout,2R.jpg,,,564205,564205,563704,563704.0000000001,563738,564237,
注視(1秒),canvas.Screen,24_9_1,2023-01-06T03:39:46.628Z,,,d,,,135,1017,timeout,2R.jpg,,,565221,565220,564205,564205,564237,565254,
空白時間2 (0.5秒),canvas.Screen,24_9_2,2023-01-06T03:39:47.128Z,,,d,,,135,500,timeout,2R.jpg,,,565721,565720,565220,565221,565254,565754,
刺激提示,canvas.Screen,24_9_3,2023-01-06T03:39:47.715Z,,,d,true,d,135,576,response,2R.jpg,d,keypress(j),566308,566296,565720,565721,565754,566354,
フィードバック(0.5秒),canvas.Screen,24_9_4,2023-01-06T03:39:48.230Z,,,d,,,135,507,timeout,2R.jpg,,,566822,566821,566321,566308,566354,566861,
トライアル,flow.Sequence,24_9,2023-01-06T03:39:48.230Z,,,d,,,135,3083,completion,2R.jpg,,,566822,566821,563704,563704.0000000001,563738,566861,
空白時間1 (0.5秒),canvas.Screen,24_10_0,2023-01-06T03:39:48.729Z,,,d,,,45,493,timeout,2R.jpg,,,567321,567321,566821,566822,566861,567354,
注視(1秒),canvas.Screen,24_10_1,2023-01-06T03:39:49.746Z,,,d,,,45,1018,timeout,2R.jpg,,,568338,568338,567321,567321,567354,568372,
空白時間2 (0.5秒),canvas.Screen,24_10_2,2023-01-06T03:39:50.246Z,,,d,,,45,499,timeout,2R.jpg,,,568838,568838,568338,568338,568372,568871,
刺激提示,canvas.Screen,24_10_3,2023-01-06T03:39:50.921Z,,,d,true,d,45,663,response,2R.jpg,d,keypress(j),569513,569501,568838,568838,568871,569555,
フィードバック(0.5秒),canvas.Screen,24_10_4,2023-01-06T03:39:51.429Z,,,d,,,45,499,timeout,2R.jpg,,,570021,570021,569521,569514,569555,570054,
トライアル,flow.Sequence,24_10,2023-01-06T03:39:51.430Z,,,d,,,45,3160,completion,2R.jpg,,,570022,570021,566821,566822,566861,570054,
空白時間1 (0.5秒),canvas.Screen,24_11_0,2023-01-06T03:39:51.929Z,,,b,,,90,500,timeout,2.jpg,,,570521,570520,570021,570022,570054,570554,
注視(1秒),canvas.Screen,24_11_1,2023-01-06T03:39:52.946Z,,,b,,,90,1017,timeout,2.jpg,,,571538,571538,570520,570521,570554,571571,
空白時間2 (0.5秒),canvas.Screen,24_11_2,2023-01-06T03:39:53.446Z,,,b,,,90,501,timeout,2.jpg,,,572038,572038,571538,571538,571571,572072,
刺激提示,canvas.Screen,24_11_3,2023-01-06T03:39:54.010Z,,,b,true,b,90,552,response,2.jpg,b,keypress(f),572602,572590,572038,572038,572072,572654,
フィードバック(0.5秒),canvas.Screen,24_11_4,2023-01-06T03:39:54.529Z,,,b,,,90,500,timeout,2.jpg,,,573121,573120,572621,572603.0000000001,572654,573154,
トライアル,flow.Sequence,24_11,2023-01-06T03:39:54.529Z,,,b,,,90,3066,completion,2.jpg,,,573121,573120,570021,570022,570054,573154,
空白時間1 (0.5秒),canvas.Screen,24_12_0,2023-01-06T03:39:55.029Z,,,b,,,0,500,timeout,2.jpg,,,573621,573621,573120,573121,573154,573654,
注視(1秒),canvas.Screen,24_12_1,2023-01-06T03:39:56.046Z,,,b,,,0,1018,timeout,2.jpg,,,574638,574638,573621,573622,573654,574672,
空白時間2 (0.5秒),canvas.Screen,24_12_2,2023-01-06T03:39:56.546Z,,,b,,,0,500,timeout,2.jpg,,,575138,575138,574638,574638,574672,575172,
刺激提示,canvas.Screen,24_12_3,2023-01-06T03:39:57.203Z,,,b,true,b,0,646,response,2.jpg,b,keypress(f),575795,575784,575138,575138,575172,575837,
フィードバック(0.5秒),canvas.Screen,24_12_4,2023-01-06T03:39:57.712Z,,,b,,,0,501,timeout,2.jpg,,,576304,576304,575804,575796,575837,576338,
トライアル,flow.Sequence,24_12,2023-01-06T03:39:57.712Z,,,b,,,0,3150,completion,2.jpg,,,576304,576304,573120,573121,573154,576338,
空白時間1 (0.5秒),canvas.Screen,24_13_0,2023-01-06T03:39:58.212Z,,,d,,,270,499,timeout,2R.jpg,,,576805.0000000001,576804,576304,576304,576338,576837,
注視(1秒),canvas.Screen,24_13_1,2023-01-06T03:39:59.229Z,,,d,,,270,1017,timeout,2R.jpg,,,577821,577821,576804,576805.0000000001,576837,577854,
空白時間2 (0.5秒),canvas.Screen,24_13_2,2023-01-06T03:39:59.728Z,,,d,,,270,499,timeout,2R.jpg,,,578321,578320,577821,577821,577854,578353,
刺激提示,canvas.Screen,24_13_3,2023-01-06T03:40:00.457Z,,,d,true,d,270,718,response,2R.jpg,d,keypress(j),579049,579038,578320,578321,578353,579104,
フィードバック(0.5秒),canvas.Screen,24_13_4,2023-01-06T03:40:00.979Z,,,d,,,270,500,timeout,2R.jpg,,,579571,579571,579071,579050.0000000001,579104,579604,
トライアル,flow.Sequence,24_13,2023-01-06T03:40:00.980Z,,,d,,,270,3233,completion,2R.jpg,,,579572,579571,576304,576304,576338,579604,
空白時間1 (0.5秒),canvas.Screen,24_14_0,2023-01-06T03:40:01.479Z,,,b,,,45,501,timeout,2.jpg,,,580071,580071,579571,579572,579604,580105,
注視(1秒),canvas.Screen,24_14_1,2023-01-06T03:40:02.496Z,,,b,,,45,1015,timeout,2.jpg,,,581088,581088,580071,580072,580105,581120,
空白時間2 (0.5秒),canvas.Screen,24_14_2,2023-01-06T03:40:02.995Z,,,b,,,45,500,timeout,2.jpg,,,581587,581587,581088,581088,581120,581620,
刺激提示,canvas.Screen,24_14_3,2023-01-06T03:40:03.399Z,,,b,true,b,45,390,response,2.jpg,b,keypress(f),581991,581977,581587,581588,581620,582054,
フィードバック(0.5秒),canvas.Screen,24_14_4,2023-01-06T03:40:03.929Z,,,b,,,45,499,timeout,2.jpg,,,582521,582520,582021,581992,582054,582553,
トライアル,flow.Sequence,24_14,2023-01-06T03:40:03.929Z,,,b,,,45,2916,completion,2.jpg,,,582521,582520,579571,579572,579604,582553,
空白時間1 (0.5秒),canvas.Screen,24_15_0,2023-01-06T03:40:04.432Z,,,d,,,315,501,timeout,2R.jpg,,,583024,583021,582520,582521,582553,583054,
注視(1秒),canvas.Screen,24_15_1,2023-01-06T03:40:05.415Z,,,d,,,315,984,timeout,2R.jpg,,,584007.0000000001,584004,583021,583024,583054,584038,
空白時間2 (0.5秒),canvas.Screen,24_15_2,2023-01-06T03:40:05.913Z,,,d,,,315,499,timeout,2R.jpg,,,584505,584504,584004,584007.0000000001,584038,584537,
刺激提示,canvas.Screen,24_15_3,2023-01-06T03:40:06.569Z,,,d,true,d,315,643,response,2R.jpg,d,keypress(j),585161,585147,584504,584505,584537,585204,
フィードバック(0.5秒),canvas.Screen,24_15_4,2023-01-06T03:40:07.081Z,,,d,,,315,499,timeout,2R.jpg,,,585673,585670,585170,585162,585204,585703,
トライアル,flow.Sequence,24_15,2023-01-06T03:40:07.081Z,,,d,,,315,3117,completion,2R.jpg,,,585673,585670,582520,582521,582553,585703,
タスクのセット,flow.Loop,24,2023-01-06T03:40:07.082Z,,,,,,,51715,completion,,,,585674,585670,533921,533922,533955,585703,
空白時間1 (0.5秒),canvas.Screen,25_0_0,2023-01-06T03:40:07.578Z,,,b,,,135,500,timeout,2.jpg,,,586170,586170,585670,585674,585703,586203,
注視(1秒),canvas.Screen,25_0_1,2023-01-06T03:40:08.563Z,,,b,,,135,984,timeout,2.jpg,,,587155,587154,586170,586170,586203,587187,
空白時間2 (0.5秒),canvas.Screen,25_0_2,2023-01-06T03:40:09.062Z,,,b,,,135,501,timeout,2.jpg,,,587654,587654,587154,587155,587187,587688,
刺激提示,canvas.Screen,25_0_3,2023-01-06T03:40:09.670Z,,,b,true,b,135,596,response,2.jpg,b,keypress(f),588262,588250,587654,587654,587688,588304,
フィードバック(0.5秒),canvas.Screen,25_0_4,2023-01-06T03:40:10.178Z,,,b,,,135,499,timeout,2.jpg,,,588770,588770,588270,588263,588304,588803,
トライアル,flow.Sequence,25_0,2023-01-06T03:40:10.179Z,,,b,,,135,3067,completion,2.jpg,,,588771,588770,585670,585674,585703,588803,
空白時間1 (0.5秒),canvas.Screen,25_1_0,2023-01-06T03:40:10.678Z,,,b,,,180,501,timeout,2.jpg,,,589270,589270,588770,588771,588803,589304,
注視(1秒),canvas.Screen,25_1_1,2023-01-06T03:40:11.696Z,,,b,,,180,1016,timeout,2.jpg,,,590288,590287,589270,589270,589304,590320,
空白時間2 (0.5秒),canvas.Screen,25_1_2,2023-01-06T03:40:12.195Z,,,b,,,180,501,timeout,2.jpg,,,590787,590787,590287,590288,590320,590821,
刺激提示,canvas.Screen,25_1_3,2023-01-06T03:40:12.686Z,,,b,true,b,180,478,response,2.jpg,b,keypress(f),591278,591265,590787,590787,590821,591321,
フィードバック(0.5秒),canvas.Screen,25_1_4,2023-01-06T03:40:13.196Z,,,b,,,180,499,timeout,2.jpg,,,591787,591787,591297,591279,591321,591820,
トライアル,flow.Sequence,25_1,2023-01-06T03:40:13.196Z,,,b,,,180,2984,completion,2.jpg,,,591788,591787,588770,588771,588803,591820,
空白時間1 (0.5秒),canvas.Screen,25_2_0,2023-01-06T03:40:13.696Z,,,d,,,45,500,timeout,2R.jpg,,,592288,592287,591787,591788,591820,592320,
注視(1秒),canvas.Screen,25_2_1,2023-01-06T03:40:14.678Z,,,d,,,45,984,timeout,2R.jpg,,,593270,593270,592287,592288,592320,593304,
空白時間2 (0.5秒),canvas.Screen,25_2_2,2023-01-06T03:40:15.178Z,,,d,,,45,499,timeout,2R.jpg,,,593770,593770,593270,593270,593304,593803,
刺激提示,canvas.Screen,25_2_3,2023-01-06T03:40:15.734Z,,,d,true,d,45,544,response,2R.jpg,d,keypress(j),594326,594314,593770,593770,593803,594370,
フィードバック(0.5秒),canvas.Screen,25_2_4,2023-01-06T03:40:16.246Z,,,d,,,45,500,timeout,2R.jpg,,,594838,594837,594337,594327,594370,594870,
トライアル,flow.Sequence,25_2,2023-01-06T03:40:16.246Z,,,d,,,45,3017,completion,2R.jpg,,,594838,594837,591787,591788,591820,594870,
空白時間1 (0.5秒),canvas.Screen,25_3_0,2023-01-06T03:40:16.746Z,,,b,,,270,500,timeout,2.jpg,,,595338,595337,594837,594838,594870,595370,
注視(1秒),canvas.Screen,25_3_1,2023-01-06T03:40:17.729Z,,,b,,,270,984,timeout,2.jpg,,,596321,596320,595337,595338,595370,596354,
空白時間2 (0.5秒),canvas.Screen,25_3_2,2023-01-06T03:40:18.228Z,,,b,,,270,500,timeout,2.jpg,,,596820,596820,596320,596321,596354,596854,
刺激提示,canvas.Screen,25_3_3,2023-01-06T03:40:19.013Z,,,b,true,b,270,773,response,2.jpg,b,keypress(f),597605,597593,596820,596820,596854,597654,
フィードバック(0.5秒),canvas.Screen,25_3_4,2023-01-06T03:40:19.529Z,,,b,,,270,499,timeout,2.jpg,,,598121,598120,597621,597606,597654,598153,
トライアル,flow.Sequence,25_3,2023-01-06T03:40:19.529Z,,,b,,,270,3250,completion,2.jpg,,,598121,598120,594837,594838,594870,598153,
空白時間1 (0.5秒),canvas.Screen,25_4_0,2023-01-06T03:40:20.029Z,,,b,,,0,501,timeout,2.jpg,,,598621,598621,598120,598121,598153,598654,
注視(1秒),canvas.Screen,25_4_1,2023-01-06T03:40:21.046Z,,,b,,,0,1016,timeout,2.jpg,,,599638,599637,598621,598621,598654,599670,
空白時間2 (0.5秒),canvas.Screen,25_4_2,2023-01-06T03:40:21.546Z,,,b,,,0,500,timeout,2.jpg,,,600137,600137,599637,599638,599670,600170,
刺激提示,canvas.Screen,25_4_3,2023-01-06T03:40:21.966Z,,,b,true,b,0,405,response,2.jpg,b,keypress(f),600558,600542,600137,600138,600170,600603,
フィードバック(0.5秒),canvas.Screen,25_4_4,2023-01-06T03:40:22.482Z,,,b,,,0,501,timeout,2.jpg,,,601074.0000000001,601070,600570,600559,600603,601104,
トライアル,flow.Sequence,25_4,2023-01-06T03:40:22.482Z,,,b,,,0,2917,completion,2.jpg,,,601074.0000000001,601070,598120,598121,598153,601104,
空白時間1 (0.5秒),canvas.Screen,25_5_0,2023-01-06T03:40:22.978Z,,,d,,,315,499,timeout,2R.jpg,,,601570,601570,601070,601074.0000000001,601104,601603,
注視(1秒),canvas.Screen,25_5_1,2023-01-06T03:40:23.963Z,,,d,,,315,984,timeout,2R.jpg,,,602554,602554,601570,601570,601603,602587,
空白時間2 (0.5秒),canvas.Screen,25_5_2,2023-01-06T03:40:24.462Z,,,d,,,315,500,timeout,2R.jpg,,,603054,603054,602554,602555.0000000001,602587,603087,
刺激提示,canvas.Screen,25_5_3,2023-01-06T03:40:25.096Z,,,d,true,d,315,621.0000000001164,response,2R.jpg,d,keypress(j),603687,603675.0000000001,603054,603054,603087,603736,
フィードバック(0.5秒),canvas.Screen,25_5_4,2023-01-06T03:40:25.613Z,,,d,,,315,502,timeout,2R.jpg,,,604204.0000000001,604204,603704,603688,603736,604238,
トライアル,flow.Sequence,25_5,2023-01-06T03:40:25.613Z,,,d,,,315,3100,completion,2R.jpg,,,604204.0000000001,604204,601070,601074.0000000001,601104,604238,
空白時間1 (0.5秒),canvas.Screen,25_6_0,2023-01-06T03:40:26.113Z,,,b,,,90,499,timeout,2.jpg,,,604704.0000000001,604704,604204,604205,604238,604737,
注視(1秒),canvas.Screen,25_6_1,2023-01-06T03:40:27.096Z,,,b,,,90,983,timeout,2.jpg,,,605687,605687,604704,604705,604737,605720,
空白時間2 (0.5秒),canvas.Screen,25_6_2,2023-01-06T03:40:27.596Z,,,b,,,90,501,timeout,2.jpg,,,606187,606187,605687,605687,605720,606221,
刺激提示,canvas.Screen,25_6_3,2023-01-06T03:40:28.078Z,,,b,true,b,90,470,response,2.jpg,b,keypress(f),606670,606657,606187,606188,606221,606720,
フィードバック(0.5秒),canvas.Screen,25_6_4,2023-01-06T03:40:28.596Z,,,b,,,90,501,timeout,2.jpg,,,607187,607187,606686,606671,606720,607221,
トライアル,flow.Sequence,25_6,2023-01-06T03:40:28.596Z,,,b,,,90,2949,completion,2.jpg,,,607187,607187,604204,604205,604238,607221,
空白時間1 (0.5秒),canvas.Screen,25_7_0,2023-01-06T03:40:29.096Z,,,d,,,225,499,timeout,2R.jpg,,,607688,607687,607187,607188,607221,607720,
注視(1秒),canvas.Screen,25_7_1,2023-01-06T03:40:30.113Z,,,d,,,225,1016,timeout,2R.jpg,,,608704.0000000001,608704,607687,607688,607720,608736,
空白時間2 (0.5秒),canvas.Screen,25_7_2,2023-01-06T03:40:30.612Z,,,d,,,225,501,timeout,2R.jpg,,,609203,609203,608704,608704.0000000001,608736,609237,
刺激提示,canvas.Screen,25_7_3,2023-01-06T03:40:31.254Z,,,d,true,d,225,630,response,2R.jpg,d,keypress(j),609846,609833,609203,609203,609237,609886,
フィードバック(0.5秒),canvas.Screen,25_7_4,2023-01-06T03:40:31.763Z,,,d,,,225,501,timeout,2R.jpg,,,610354,610354,609864,609847,609886,610387,
トライアル,flow.Sequence,25_7,2023-01-06T03:40:31.763Z,,,d,,,225,3133,completion,2R.jpg,,,610355,610354,607187,607188,607221,610387,
空白時間1 (0.5秒),canvas.Screen,25_8_0,2023-01-06T03:40:32.262Z,,,d,,,270,500,timeout,2R.jpg,,,610854,610853,610354,610355,610387,610887,
注視(1秒),canvas.Screen,25_8_1,2023-01-06T03:40:33.248Z,,,d,,,270,983,timeout,2R.jpg,,,611839,611837,610853,610854,610887,611870,
空白時間2 (0.5秒),canvas.Screen,25_8_2,2023-01-06T03:40:33.749Z,,,d,,,270,500,timeout,2R.jpg,,,612340,612337,611837,611840,611870,612370,
刺激提示,canvas.Screen,25_8_3,2023-01-06T03:40:34.335Z,,,d,true,d,270,573,response,2R.jpg,d,keypress(j),612926,612910,612337,612340,612370,612971,
フィードバック(0.5秒),canvas.Screen,25_8_4,2023-01-06T03:40:34.848Z,,,d,,,270,498,timeout,2R.jpg,,,613440,613437,612936,612927,612971,613469,
トライアル,flow.Sequence,25_8,2023-01-06T03:40:34.849Z,,,d,,,270,3050,completion,2R.jpg,,,613440,613437,610354,610355,610387,613469,
空白時間1 (0.5秒),canvas.Screen,25_9_0,2023-01-06T03:40:35.346Z,,,d,,,90,501,timeout,2R.jpg,,,613937,613937,613437,613440,613469,613970,
注視(1秒),canvas.Screen,25_9_1,2023-01-06T03:40:36.329Z,,,d,,,90,984,timeout,2R.jpg,,,614920,614920,613937,613937,613970,614954,
空白時間2 (0.5秒),canvas.Screen,25_9_2,2023-01-06T03:40:36.829Z,,,d,,,90,499,timeout,2R.jpg,,,615420,615420,614920,614921,614954,615453,
刺激提示,canvas.Screen,25_9_3,2023-01-06T03:40:37.401Z,,,d,true,d,90,559,response,2R.jpg,d,keypress(j),615993,615979,615420,615421,615453,616038,
フィードバック(0.5秒),canvas.Screen,25_9_4,2023-01-06T03:40:37.913Z,,,d,,,90,498,timeout,2R.jpg,,,616504,616504,616003,615993,616038,616536,
トライアル,flow.Sequence,25_9,2023-01-06T03:40:37.913Z,,,d,,,90,3035,completion,2R.jpg,,,616504,616504,613437,613440,613469,616536,
空白時間1 (0.5秒),canvas.Screen,25_10_0,2023-01-06T03:40:38.413Z,,,b,,,315,501,timeout,2.jpg,,,617004,617004,616504,616505,616536,617037,
注視(1秒),canvas.Screen,25_10_1,2023-01-06T03:40:39.431Z,,,b,,,315,1016,timeout,2.jpg,,,618023,618020,617004,617004,617037,618053,
空白時間2 (0.5秒),canvas.Screen,25_10_2,2023-01-06T03:40:39.929Z,,,b,,,315,500,timeout,2.jpg,,,618520,618520,618020,618023,618053,618553,
刺激提示,canvas.Screen,25_10_3,2023-01-06T03:40:40.455Z,,,b,true,b,315,511.0000000001164,response,2.jpg,b,keypress(f),619046,619031.0000000001,618520,618521,618553,619087,
フィードバック(0.5秒),canvas.Screen,25_10_4,2023-01-06T03:40:40.965Z,,,b,,,315,500,timeout,2.jpg,,,619556,619554,619053,619047,619087,619587,
トライアル,flow.Sequence,25_10,2023-01-06T03:40:40.965Z,,,b,,,315,3018,completion,2.jpg,,,619557,619554,616504,616505,616536,619587,
空白時間1 (0.5秒),canvas.Screen,25_11_0,2023-01-06T03:40:41.462Z,,,d,,,135,500,timeout,2R.jpg,,,620054,620053,619554,619557,619587,620087,
注視(1秒),canvas.Screen,25_11_1,2023-01-06T03:40:42.479Z,,,d,,,135,1016,timeout,2R.jpg,,,621070,621069,620053,620054,620087,621103,
空白時間2 (0.5秒),canvas.Screen,25_11_2,2023-01-06T03:40:42.978Z,,,d,,,135,500,timeout,2R.jpg,,,621570,621569,621069,621070,621103,621603,
刺激提示,canvas.Screen,25_11_3,2023-01-06T03:40:43.554Z,,,d,true,d,135,563.0000000001164,response,2R.jpg,d,keypress(j),622145,622132.0000000001,621569,621570,621603,622187,
フィードバック(0.5秒),canvas.Screen,25_11_4,2023-01-06T03:40:44.062Z,,,d,,,135,499,timeout,2R.jpg,,,622654,622653,622154,622146,622187,622686,
トライアル,flow.Sequence,25_11,2023-01-06T03:40:44.063Z,,,d,,,135,3066,completion,2R.jpg,,,622654,622653,619554,619557,619587,622686,
空白時間1 (0.5秒),canvas.Screen,25_12_0,2023-01-06T03:40:44.562Z,,,d,,,180,501,timeout,2R.jpg,,,623153,623153,622653,622654,622686,623187,
注視(1秒),canvas.Screen,25_12_1,2023-01-06T03:40:45.563Z,,,d,,,180,1000,timeout,2R.jpg,,,624154,624154,623153,623153,623187,624187,
空白時間2 (0.5秒),canvas.Screen,25_12_2,2023-01-06T03:40:46.062Z,,,d,,,180,500,timeout,2R.jpg,,,624654,624653,624154,624154,624187,624687,
刺激提示,canvas.Screen,25_12_3,2023-01-06T03:40:46.769Z,,,d,true,d,180,694,response,2R.jpg,d,keypress(j),625360,625347,624653,624654,624687,625403,
フィードバック(0.5秒),canvas.Screen,25_12_4,2023-01-06T03:40:47.281Z,,,d,,,180,500,timeout,2R.jpg,,,625873,625869,625369,625361,625403,625903,
トライアル,flow.Sequence,25_12,2023-01-06T03:40:47.282Z,,,d,,,180,3183,completion,2R.jpg,,,625873,625869,622653,622654,622686,625903,
空白時間1 (0.5秒),canvas.Screen,25_13_0,2023-01-06T03:40:47.780Z,,,b,,,45,500,timeout,2.jpg,,,626371,626371,625869,625873,625903,626403,
注視(1秒),canvas.Screen,25_13_1,2023-01-06T03:40:48.763Z,,,b,,,45,984,timeout,2.jpg,,,627354,627354,626371,626371,626403,627387,
