sender_type,sender_id,timestamp,meta,,answer,correct,correctResponse,deg,duration,ended_on,image,response,response_action,time_commit,time_end,time_render,time_run,time_show,time_switch,url
html.Page,0,2023-01-14T03:36:31.524Z,"{""labjs_version"":""20.2.4"",""labjs_build"":{""flavor"":""development"",""commit"":""f5b4a49f956347addd546a832a3327688c2c0fef""},""location"":""https://labjs.felixhenninger.com/api/labjs_preview/index.html"",""userAgent"":""Mozilla/5.0 (Windows NT 10.0; Win64; x64) AppleWebKit/537.36 (KHTML, like Gecko) Chrome/108.0.0.0 Safari/537.36"",""platform"":""Win32"",""language"":""ja-JP"",""locale"":""ja"",""timeZone"":""Etc/GMT-9"",""timezoneOffset"":-540,""screen_width"":1280,""screen_height"":720,""scroll_width"":880,""scroll_height"":760,""window_innerWidth"":880,""window_innerHeight"":808,""devicePixelRatio"":1.125}",,,,,,2506.62,form submission,,,,3472.3,3472.1,882.15,1185.7,965.48,3265.176,{}
html.Page,1,2023-01-14T03:36:33.717Z,,,,,,,2400.024,form submission,,,,5665.3,5665.2,3248.579,3472.6,3265.176,5481.554,
html.Page,2,2023-01-14T03:36:37.508Z,,,,,,,3974.846,form submission,,,,9456.5,9456.4,5465.132,5665.5,5481.554,9247.758,
html.Page,3,2023-01-14T03:36:40.478Z,,,,,,,3178.442,form submission,,,,12426.5,12426.2,9231.482,9456.6,9247.758,12214.042,
html.Page,4,2023-01-14T03:36:42.830Z,,,,,,,2564.058,form submission,,,,14778.2,14778.1,12197.725,12426.6,12214.042,14563.687,
canvas.Screen,5,2023-01-14T03:36:43.595Z,,,,,,,753.42,timeout,,,,15543.6,15543,14547.275,14778.3,14563.687,15317.107,
canvas.Screen,6_0_0,2023-01-14T03:36:43.862Z,,,b,,,180,263.464,timeout,e.jpg,,,15810.5,15810.1,15543,15543.8,15317.107,15580.571,
canvas.Screen,6_0_1,2023-01-14T03:36:44.612Z,,,b,,,180,749.656,timeout,e.jpg,,,16559.8,16559.4,15810.1,15810.8,15580.571,16330.227,
canvas.Screen,6_0_2,2023-01-14T03:36:44.873Z,,,b,,,180,267.117,timeout,e.jpg,,,16821.4,16820.9,16559.4,16560,16330.227,16597.344,
canvas.Screen,6_0_3,2023-01-14T03:36:45.940Z,,,b,FALSE,b,180,1289.156,response,e.jpg,d,keypress(j),17888.3,17886.5,16820.9,16821.7,16597.344,17679.951,
canvas.Screen,6_0_4,2023-01-14T03:36:46.212Z,,,b,,,180,260.752,timeout,e.jpg,,,18160.3,18159.9,17667.612,17890.3,17679.951,17940.703,
flow.Sequence,6_0,2023-01-14T03:36:46.213Z,,,b,,,180,2842.793,completion,e.jpg,,,18160.9,18159.9,15543,15543.8,15317.107,17940.703,
canvas.Screen,6_1_0,2023-01-14T03:36:46.471Z,,,d,,,135,256.515,timeout,eR.jpg,,,18419.5,18418.8,18159.9,18161.1,17940.703,18197.218,
canvas.Screen,6_1_1,2023-01-14T03:36:47.232Z,,,d,,,135,750.922,timeout,eR.jpg,,,19179.9,19179.4,18418.8,18419.7,18197.218,18948.14,
canvas.Screen,6_1_2,2023-01-14T03:36:47.476Z,,,d,,,135,248.661,timeout,eR.jpg,,,19424.3,19423.8,19179.4,19180.1,18948.14,19196.801,
canvas.Screen,6_1_3,2023-01-14T03:36:48.476Z,,,d,FALSE,d,135,1226.199,response,eR.jpg,b,keypress(f),20424,20423,19423.8,19424.5,19196.801,20212.935,
canvas.Screen,6_1_4,2023-01-14T03:36:48.752Z,,,d,,,135,271.118,timeout,eR.jpg,,,20700.1,20699.6,20196.437,20427.4,20212.935,20484.053,
flow.Sequence,6_1,2023-01-14T03:36:48.752Z,,,d,,,135,2758.897,completion,eR.jpg,,,20700.5,20699.6,18159.9,18161.1,17940.703,20484.053,
canvas.Screen,6_2_0,2023-01-14T03:36:49.030Z,,,b,,,270,262.68,timeout,e.jpg,,,20978,20977.8,20699.6,20700.7,20484.053,20746.733,
canvas.Screen,6_2_1,2023-01-14T03:36:49.788Z,,,b,,,270,766.356,timeout,e.jpg,,,21736.3,21736,20977.8,20978.3,20746.733,21513.089,
canvas.Screen,6_2_2,2023-01-14T03:36:50.043Z,,,b,,,270,253.635,timeout,e.jpg,,,21991.6,21991.3,21736,21736.5,21513.089,21766.724,
canvas.Screen,6_2_3,2023-01-14T03:36:51.104Z,,,b,TRUE,b,270,1285.476,response,e.jpg,b,keypress(f),23052.7,23052.2,21991.3,21991.9,21766.724,22845.921,
canvas.Screen,6_2_4,2023-01-14T03:36:51.375Z,,,b,,,270,250.242,timeout,e.jpg,,,23323.4,23323.1,22828.929,23058.1,22845.921,23096.163,
flow.Sequence,6_2,2023-01-14T03:36:51.376Z,,,b,,,270,2839.047,completion,e.jpg,,,23323.9,23323.1,20699.6,20700.6,20484.053,23096.163,
canvas.Screen,6_3_0,2023-01-14T03:36:51.699Z,,,d,,,315,333.335,timeout,eR.jpg,,,23647.6,23647.3,23323.1,23324.1,23096.163,23429.498,
canvas.Screen,6_3_1,2023-01-14T03:36:52.467Z,,,d,,,315,766.417,timeout,eR.jpg,,,24415.8,24415.4,23647.3,23647.8,23429.498,24195.915,
canvas.Screen,6_3_2,2023-01-14T03:36:52.732Z,,,d,,,315,266.971,timeout,eR.jpg,,,24680,24679.6,24415.4,24416,24195.915,24462.886,
canvas.Screen,6_3_3,2023-01-14T03:36:53.656Z,,,d,TRUE,d,315,1140.514,response,eR.jpg,d,keypress(j),25603.9,25603.4,24679.6,24680.3,24462.886,25395.707,
canvas.Screen,6_3_4,2023-01-14T03:36:53.924Z,,,d,,,315,250.659,timeout,eR.jpg,,,25872.6,25872.2,25381.084,25604.6,25395.707,25646.366,
flow.Sequence,6_3,2023-01-14T03:36:53.925Z,,,d,,,315,2776.037,completion,eR.jpg,,,25872.9,25872.2,23323.1,23323.9,23096.163,25646.366,
flow.Loop,6,2023-01-14T03:36:53.925Z,,,,,,,10555.093,completion,,,,25873.1,25872.2,15543,15543.8,15317.107,25646.366,
html.Page,7,2023-01-14T03:36:56.827Z,,,,,,,3128.934,form submission,,,,28775.4,28775.3,25872.2,25873.2,25646.366,28561.807,
canvas.Screen,8,2023-01-14T03:36:57.608Z,,,,,,,770.148,timeout,,,,29556,29555.8,28546.264,28775.6,28561.807,29331.955,
canvas.Screen,9_0_0,2023-01-14T03:36:57.869Z,,,d,,,315,263.353,timeout,eR.jpg,,,29816.9,29816.8,29555.8,29556.2,29331.955,29595.308,
canvas.Screen,9_0_1,2023-01-14T03:36:58.642Z,,,d,,,315,766.452,timeout,eR.jpg,,,30590.8,30590.5,29816.8,29817.1,29595.308,30361.76,
canvas.Screen,9_0_2,2023-01-14T03:36:58.891Z,,,d,,,315,253.53,timeout,eR.jpg,,,30839.6,30839.5,30590.5,30590.9,30361.76,30615.29,
canvas.Screen,9_0_3,2023-01-14T03:36:59.805Z,,,d,TRUE,d,315,1137.51,response,eR.jpg,d,keypress(j),31753.4,31752.8,30839.5,30839.7,30615.29,31544.832,
canvas.Screen,9_0_4,2023-01-14T03:37:00.076Z,,,d,,,315,250.011,timeout,eR.jpg,,,32023.9,32023.6,31527.815,31761.2,31544.832,31794.843,
flow.Sequence,9_0,2023-01-14T03:37:00.076Z,,,d,,,315,2691.645,completion,eR.jpg,,,32024.1,32023.6,29555.8,29556.2,29331.955,31794.843,
canvas.Screen,9_1_0,2023-01-14T03:37:00.323Z,,,d,,,225,250.063,timeout,eR.jpg,,,32271.4,32271.1,32023.6,32024.1,31794.843,32044.906,
canvas.Screen,9_1_1,2023-01-14T03:37:01.092Z,,,d,,,225,767.055,timeout,eR.jpg,,,33040.1,33039.7,32271.1,32271.6,32044.906,32811.961,
canvas.Screen,9_1_2,2023-01-14T03:37:01.349Z,,,d,,,225,260.143,timeout,eR.jpg,,,33297.3,33296.9,33039.7,33040.2,32811.961,33072.104,
canvas.Screen,9_1_3,2023-01-14T03:37:02.439Z,,,d,TRUE,d,225,1314.396,response,eR.jpg,d,keypress(j),34387.5,34386.5,33296.9,33297.5,33072.104,34177.733,
canvas.Screen,9_1_4,2023-01-14T03:37:02.780Z,,,d,,,225,334.057,timeout,eR.jpg,,,34728.6,34728.2,34164.251,34388.5,34177.733,34511.79,
flow.Sequence,9_1,2023-01-14T03:37:02.781Z,,,d,,,225,2933.357,completion,eR.jpg,,,34728.9,34728.2,32023.6,32024.1,31794.843,34511.79,
canvas.Screen,9_2_0,2023-01-14T03:37:03.116Z,,,d,,,45,332.917,timeout,eR.jpg,,,35064.4,35064.1,34728.2,34729.1,34511.79,34844.707,
canvas.Screen,9_2_1,2023-01-14T03:37:03.877Z,,,d,,,45,749.963,timeout,eR.jpg,,,35825,35824.8,35064.1,35064.6,34844.707,35594.67,
canvas.Screen,9_2_2,2023-01-14T03:37:04.124Z,,,d,,,45,253.305,timeout,eR.jpg,,,36072.1,36071.8,35824.8,35825.2,35594.67,35847.975,
canvas.Screen,9_2_3,2023-01-14T03:37:05.007Z,,,d,FALSE,d,45,1106.525,response,eR.jpg,b,keypress(f),36955.4,36954.5,36071.8,36072.3,35847.975,36761.148,
canvas.Screen,9_2_4,2023-01-14T03:37:05.292Z,,,d,,,45,250.007,timeout,eR.jpg,,,37240.1,37239.7,36745.542,36965.1,36761.148,37011.155,
flow.Sequence,9_2,2023-01-14T03:37:05.292Z,,,d,,,45,2727.91,completion,eR.jpg,,,37240.3,37239.7,34728.2,34729.1,34511.79,37011.155,
canvas.Screen,9_3_0,2023-01-14T03:37:05.540Z,,,d,,,135,253.507,timeout,eR.jpg,,,37488.3,37488,37239.7,37240.5,37011.155,37264.662,
canvas.Screen,9_3_1,2023-01-14T03:37:06.300Z,,,d,,,135,762.744,timeout,eR.jpg,,,38248.3,38248,37488,37488.6,37264.662,38027.406,
canvas.Screen,9_3_2,2023-01-14T03:37:06.555Z,,,d,,,135,250.141,timeout,eR.jpg,,,38503.4,38503.1,38248,38248.6,38027.406,38277.547,
canvas.Screen,9_3_3,2023-01-14T03:37:07.354Z,,,d,TRUE,d,135,1024.753,response,eR.jpg,d,keypress(j),39302.8,39302.3,38503.1,38503.6,38277.547,39093.842,
canvas.Screen,9_3_4,2023-01-14T03:37:07.641Z,,,d,,,135,266.647,timeout,eR.jpg,,,39588.9,39588.6,39077.793,39303.5,39093.842,39360.489,
flow.Sequence,9_3,2023-01-14T03:37:07.641Z,,,d,,,135,2577.445,completion,eR.jpg,,,39589.2,39588.6,37239.7,37240.5,37011.155,39360.489,
canvas.Screen,9_4_0,2023-01-14T03:37:07.964Z,,,b,,,45,333.462,timeout,e.jpg,,,39911.9,39911.6,39588.6,39589.5,39360.489,39693.951,
canvas.Screen,9_4_1,2023-01-14T03:37:08.724Z,,,b,,,45,750.209,timeout,e.jpg,,,40672.5,40672.2,39911.6,39912.2,39693.951,40444.16,
canvas.Screen,9_4_2,2023-01-14T03:37:08.972Z,,,b,,,45,250.034,timeout,e.jpg,,,40920.3,40920,40672.2,40672.7,40444.16,40694.194,
canvas.Screen,9_4_3,2023-01-14T03:37:09.825Z,,,b,TRUE,b,45,1077.806,response,e.jpg,b,keypress(f),41773,41772,40920,40920.5,40694.194,41560.124,
canvas.Screen,9_4_4,2023-01-14T03:37:10.092Z,,,b,,,45,250.671,timeout,e.jpg,,,42040.1,42039.8,41546.608,41773.8,41560.124,41810.795,
flow.Sequence,9_4,2023-01-14T03:37:10.092Z,,,b,,,45,2679.311,completion,e.jpg,,,42040.5,42039.8,39588.6,39589.4,39360.489,41810.795,
canvas.Screen,9_5_0,2023-01-14T03:37:10.411Z,,,b,,,135,316.556,timeout,e.jpg,,,42359.4,42359.1,42039.8,42040.6,41810.795,42127.351,
canvas.Screen,9_5_1,2023-01-14T03:37:11.156Z,,,b,,,135,749.601,timeout,e.jpg,,,43104.5,43104.1,42359.1,42359.6,42127.351,42876.952,
canvas.Screen,9_5_2,2023-01-14T03:37:11.412Z,,,b,,,135,266.54,timeout,e.jpg,,,43360.4,43360.1,43104.1,43104.6,42876.952,43143.492,
canvas.Screen,9_5_3,2023-01-14T03:37:12.684Z,,,b,TRUE,b,135,1488.508,response,e.jpg,b,keypress(f),44632.5,44632,43360.1,43360.6,43143.492,44426.443,
canvas.Screen,9_5_4,2023-01-14T03:37:13.027Z,,,b,,,135,317.139,timeout,e.jpg,,,44975.3,44975,44411.472,44633,44426.443,44743.582,
flow.Sequence,9_5,2023-01-14T03:37:13.027Z,,,b,,,135,3164.205,completion,e.jpg,,,44975.7,44975,42039.8,42040.5,41810.795,44743.582,
canvas.Screen,9_6_0,2023-01-14T03:37:13.349Z,,,d,,,0,333.034,timeout,eR.jpg,,,45297.3,45297,44975,44975.9,44743.582,45076.616,
canvas.Screen,9_6_1,2023-01-14T03:37:14.107Z,,,d,,,0,753.695,timeout,eR.jpg,,,46055.6,46055.3,45297,45297.5,45076.616,45830.311,
canvas.Screen,9_6_2,2023-01-14T03:37:14.363Z,,,d,,,0,262.67,timeout,eR.jpg,,,46311.4,46311.1,46055.3,46055.8,45830.311,46092.981,
canvas.Screen,9_6_3,2023-01-14T03:37:15.331Z,,,d,TRUE,d,0,1185.019,response,eR.jpg,d,keypress(j),47279,47278,46311.1,46311.5,46092.981,47076.071,
canvas.Screen,9_6_4,2023-01-14T03:37:15.604Z,,,d,,,0,250.166,timeout,eR.jpg,,,47552.2,47551.9,47059.139,47287.9,47076.071,47326.237,
flow.Sequence,9_6,2023-01-14T03:37:15.604Z,,,d,,,0,2808.318,completion,eR.jpg,,,47552.5,47551.9,44975,44975.8,44743.582,47326.237,
canvas.Screen,9_7_0,2023-01-14T03:37:15.860Z,,,b,,,315,250.051,timeout,e.jpg,,,47808.3,47808.1,47551.9,47552.7,47326.237,47576.288,
canvas.Screen,9_7_1,2023-01-14T03:37:16.684Z,,,b,,,315,833.294,timeout,e.jpg,,,48631.9,48631.7,47808.1,47808.5,47576.288,48409.582,
canvas.Screen,9_7_2,2023-01-14T03:37:16.940Z,,,b,,,315,250.084,timeout,e.jpg,,,48888.1,48887.8,48631.7,48632.2,48409.582,48659.666,
canvas.Screen,9_7_3,2023-01-14T03:37:17.904Z,,,b,TRUE,b,315,1191.634,response,e.jpg,b,keypress(f),49852.1,49851.3,48887.8,48888.3,48659.666,49642.411,
canvas.Screen,9_7_4,2023-01-14T03:37:18.244Z,,,b,,,315,319.895,timeout,e.jpg,,,50192.2,50191.8,49629.257,49852.6,49642.411,49962.306,
flow.Sequence,9_7,2023-01-14T03:37:18.244Z,,,b,,,315,2865.563,completion,e.jpg,,,50192.5,50191.8,47551.9,47552.6,47326.237,49962.306,
canvas.Screen,9_8_0,2023-01-14T03:37:18.492Z,,,d,,,180,247.211,timeout,eR.jpg,,,50440.3,50440,50191.8,50192.6,49962.306,50209.517,
canvas.Screen,9_8_1,2023-01-14T03:37:19.316Z,,,d,,,180,833.466,timeout,eR.jpg,,,51264.1,51263.8,50440,50440.4,50209.517,51042.983,
canvas.Screen,9_8_2,2023-01-14T03:37:19.644Z,,,d,,,180,332.765,timeout,eR.jpg,,,51592.3,51592.1,51263.8,51264.3,51042.983,51375.748,
canvas.Screen,9_8_3,2023-01-14T03:37:20.643Z,,,d,TRUE,d,180,1215.452,response,eR.jpg,d,keypress(j),52591.7,52591.2,51592.1,51592.6,51375.748,52392.125,
canvas.Screen,9_8_4,2023-01-14T03:37:20.995Z,,,d,,,180,334.946,timeout,eR.jpg,,,52943.6,52943.2,52375.473,52592.2,52392.125,52727.071,
flow.Sequence,9_8,2023-01-14T03:37:20.996Z,,,d,,,180,2980.894,completion,eR.jpg,,,52943.9,52943.2,50191.8,50192.6,49962.306,52727.071,
canvas.Screen,9_9_0,2023-01-14T03:37:21.259Z,,,d,,,90,248.528,timeout,eR.jpg,,,53207.7,53207.4,52943.2,52944.1,52727.071,52975.599,
canvas.Screen,9_9_1,2023-01-14T03:37:22.003Z,,,d,,,90,749.928,timeout,eR.jpg,,,53951.7,53951.4,53207.4,53207.9,52975.599,53725.527,
canvas.Screen,9_9_2,2023-01-14T03:37:22.332Z,,,d,,,90,334.937,timeout,eR.jpg,,,54280.1,54279.7,53951.4,53951.9,53725.527,54060.464,
canvas.Screen,9_9_3,2023-01-14T03:37:23.672Z,,,d,TRUE,d,90,1558.036,response,eR.jpg,d,keypress(j),55619.8,55618.5,54279.7,54280.3,54060.464,55424.955,
canvas.Screen,9_9_4,2023-01-14T03:37:24.028Z,,,d,,,90,333.532,timeout,eR.jpg,,,55976,55975.7,55407.742,55628,55424.955,55758.487,
flow.Sequence,9_9,2023-01-14T03:37:24.028Z,,,d,,,90,3248.629,completion,eR.jpg,,,55976.2,55975.7,52943.2,52944,52727.071,55758.487,
canvas.Screen,9_10_0,2023-01-14T03:37:24.292Z,,,b,,,225,249.944,timeout,e.jpg,,,56240.7,56240.4,55975.7,55976.5,55758.487,56008.431,
canvas.Screen,9_10_1,2023-01-14T03:37:25.036Z,,,b,,,225,749.906,timeout,e.jpg,,,56983.9,56983.6,56240.4,56240.9,56008.431,56758.337,
canvas.Screen,9_10_2,2023-01-14T03:37:25.364Z,,,b,,,225,333.31,timeout,e.jpg,,,57312.3,57311.9,56983.6,56984.1,56758.337,57091.647,
canvas.Screen,9_10_3,2023-01-14T03:37:26.800Z,,,b,TRUE,b,225,1655.453,response,e.jpg,b,keypress(f),58748.3,58747.1,57311.9,57312.5,57091.647,58541.171,
canvas.Screen,9_10_4,2023-01-14T03:37:27.148Z,,,b,,,225,338.21,timeout,e.jpg,,,59096.4,59096,58527.38,58750.1,58541.171,58879.381,
flow.Sequence,9_10,2023-01-14T03:37:27.148Z,,,b,,,225,3337.513,completion,e.jpg,,,59096.7,59096,55975.7,55976.4,55758.487,58879.381,
canvas.Screen,9_11_0,2023-01-14T03:37:27.412Z,,,b,,,270,262.435,timeout,e.jpg,,,59359.9,59359.6,59096,59096.8,58879.381,59141.816,
canvas.Screen,9_11_1,2023-01-14T03:37:28.172Z,,,b,,,270,750.853,timeout,e.jpg,,,60120.5,60120.1,59359.6,59360.1,59141.816,59892.669,
canvas.Screen,9_11_2,2023-01-14T03:37:28.420Z,,,b,,,270,248.547,timeout,e.jpg,,,60368.2,60368,60120.1,60120.7,59892.669,60141.216,
canvas.Screen,9_11_3,2023-01-14T03:37:29.174Z,,,b,TRUE,b,270,980.484,response,e.jpg,b,keypress(f),61122.3,61121.7,60368,60368.5,60141.216,60924.27,
canvas.Screen,9_11_4,2023-01-14T03:37:29.452Z,,,b,,,270,253.594,timeout,e.jpg,,,61400.3,61400,60907.647,61129.7,60924.27,61177.864,
flow.Sequence,9_11,2023-01-14T03:37:29.452Z,,,b,,,270,2520.619,completion,e.jpg,,,61400.7,61400,59096,59096.8,58879.381,61177.864,
canvas.Screen,9_12_0,2023-01-14T03:37:29.708Z,,,b,,,180,246.729,timeout,e.jpg,,,61656.3,61656,61400,61400.9,61177.864,61424.593,
canvas.Screen,9_12_1,2023-01-14T03:37:30.460Z,,,b,,,180,766.571,timeout,e.jpg,,,62408.4,62408.1,61656,61656.7,61424.593,62191.164,
canvas.Screen,9_12_2,2023-01-14T03:37:30.795Z,,,b,,,180,334.711,timeout,e.jpg,,,62743.4,62743.1,62408.1,62408.7,62191.164,62525.875,
canvas.Screen,9_12_3,2023-01-14T03:37:31.765Z,,,b,FALSE,b,180,1185.925,response,e.jpg,d,keypress(j),63712.9,63711.8,62743.1,62743.7,62525.875,63507.178,
canvas.Screen,9_12_4,2023-01-14T03:37:32.107Z,,,b,,,180,317.269,timeout,e.jpg,,,64055.4,64055.1,63490.267,63714.9,63507.178,63824.447,
flow.Sequence,9_12,2023-01-14T03:37:32.107Z,,,b,,,180,2877.236,completion,e.jpg,,,64055.8,64055.1,61400,61400.8,61177.864,63824.447,
canvas.Screen,9_13_0,2023-01-14T03:37:32.357Z,,,b,,,0,249.733,timeout,e.jpg,,,64305.1,64304.8,64055.1,64055.9,63824.447,64074.18,
canvas.Screen,9_13_1,2023-01-14T03:37:33.107Z,,,b,,,0,749.815,timeout,e.jpg,,,65055.7,65055.4,64304.8,64305.3,64074.18,64823.995,
canvas.Screen,9_13_2,2023-01-14T03:37:33.355Z,,,b,,,0,249.937,timeout,e.jpg,,,65303.4,65303,65055.4,65055.9,64823.995,65073.932,
canvas.Screen,9_13_3,2023-01-14T03:37:34.132Z,,,b,TRUE,b,0,1005.768,response,e.jpg,b,keypress(f),66080,66079.7,65303,65303.6,65073.932,65873.579,
canvas.Screen,9_13_4,2023-01-14T03:37:34.475Z,,,b,,,0,333.743,timeout,e.jpg,,,66423.6,66423.2,65858.572,66081,65873.579,66207.322,
flow.Sequence,9_13,2023-01-14T03:37:34.476Z,,,b,,,0,2598.753,completion,e.jpg,,,66423.9,66423.2,64055.1,64055.9,63824.447,66207.322,
canvas.Screen,9_14_0,2023-01-14T03:37:34.820Z,,,d,,,270,337.54,timeout,eR.jpg,,,66768.2,66767.8,66423.2,66424.1,66207.322,66544.862,
canvas.Screen,9_14_1,2023-01-14T03:37:35.580Z,,,d,,,270,762.477,timeout,eR.jpg,,,67528.5,67528.3,66767.8,66768.4,66544.862,67307.339,
canvas.Screen,9_14_2,2023-01-14T03:37:35.836Z,,,d,,,270,250.876,timeout,eR.jpg,,,67784.1,67783.9,67528.3,67528.5,67307.339,67558.215,
canvas.Screen,9_14_3,2023-01-14T03:37:37.217Z,,,d,TRUE,d,270,1606.285,response,eR.jpg,d,keypress(j),69165,69164.5,67783.9,67784.3,67558.215,68983.169,
canvas.Screen,9_14_4,2023-01-14T03:37:37.596Z,,,d,,,270,341.565,timeout,eR.jpg,,,69543.9,69543.5,68939.88,69172.4,68983.169,69324.734,
flow.Sequence,9_14,2023-01-14T03:37:37.596Z,,,d,,,270,3336.178,completion,eR.jpg,,,69544.2,69543.5,66423.2,66424.1,66207.322,69324.734,
canvas.Screen,9_15_0,2023-01-14T03:37:37.860Z,,,b,,,90,265.327,timeout,e.jpg,,,69808.6,69808.2,69543.5,69544.4,69324.734,69590.061,
canvas.Screen,9_15_1,2023-01-14T03:37:38.627Z,,,b,,,90,766.602,timeout,e.jpg,,,70575.4,70575.1,69808.2,69808.8,69590.061,70356.663,
canvas.Screen,9_15_2,2023-01-14T03:37:38.963Z,,,b,,,90,334.857,timeout,e.jpg,,,70911.7,70911.3,70575.1,70575.7,70356.663,70691.52,
canvas.Screen,9_15_3,2023-01-14T03:37:40.793Z,,,b,TRUE,b,90,2049.18,response,e.jpg,b,keypress(f),72741,72740.7,70911.3,70911.9,70691.52,72539.772,
canvas.Screen,9_15_4,2023-01-14T03:37:41.140Z,,,b,,,90,349.867,timeout,e.jpg,,,73088.2,73087.9,72521.921,72741.9,72539.772,72889.639,
flow.Sequence,9_15,2023-01-14T03:37:41.140Z,,,b,,,90,3763.166,completion,e.jpg,,,73088.5,73087.9,69543.5,69544.4,69324.734,72889.639,
flow.Loop,9,2023-01-14T03:37:41.140Z,,,,,,,43755.945,completion,,,,73088.8,73087.9,29555.8,29556.2,29331.955,72889.639,
canvas.Screen,10_0_0,2023-01-14T03:37:41.420Z,,,b,,,135,249.925,timeout,e.jpg,,,73368.3,73368,73087.9,73088.9,72889.639,73139.564,
canvas.Screen,10_0_1,2023-01-14T03:37:42.171Z,,,b,,,135,749.786,timeout,e.jpg,,,74119.7,74119.3,73368,73368.5,73139.564,73889.35,
canvas.Screen,10_0_2,2023-01-14T03:37:42.492Z,,,b,,,135,333.426,timeout,e.jpg,,,74439.8,74439.5,74119.3,74119.9,73889.35,74222.776,
canvas.Screen,10_0_3,2023-01-14T03:37:43.327Z,,,b,FALSE,b,135,1051.124,response,e.jpg,d,keypress(j),75274.9,75273.9,74439.5,74439.9,74222.776,75093.067,
canvas.Screen,10_0_4,2023-01-14T03:37:43.700Z,,,b,,,135,333.92,timeout,e.jpg,,,75648.1,75647.7,75058.684,75288.3,75093.067,75426.987,
flow.Sequence,10_0,2023-01-14T03:37:43.700Z,,,b,,,135,2758.061,completion,e.jpg,,,75648.4,75647.7,73087.9,73088.9,72889.639,75426.987,
canvas.Screen,10_1_0,2023-01-14T03:37:43.956Z,,,d,,,225,245.844,timeout,eR.jpg,,,75903.9,75903.6,75647.7,75648.6,75426.987,75672.831,
canvas.Screen,10_1_1,2023-01-14T03:37:44.700Z,,,d,,,225,752.816,timeout,eR.jpg,,,76648.5,76648.2,75903.6,75904.2,75672.831,76425.647,
canvas.Screen,10_1_2,2023-01-14T03:37:44.955Z,,,d,,,225,246.887,timeout,eR.jpg,,,76903.6,76903.3,76648.2,76648.8,76425.647,76672.534,
canvas.Screen,10_1_3,2023-01-14T03:37:45.701Z,,,d,TRUE,d,225,975.766,response,eR.jpg,d,keypress(j),77648.8,77648.3,76903.3,76903.8,76672.534,77438.928,
canvas.Screen,10_1_4,2023-01-14T03:37:46.043Z,,,d,,,225,334.781,timeout,eR.jpg,,,77991.5,77991.2,77422.203,77649.7,77438.928,77773.709,
flow.Sequence,10_1,2023-01-14T03:37:46.044Z,,,d,,,225,2564.213,completion,eR.jpg,,,77991.8,77991.2,75647.7,75648.5,75426.987,77773.709,
canvas.Screen,10_2_0,2023-01-14T03:37:46.308Z,,,b,,,45,265.036,timeout,e.jpg,,,78256.2,78255.9,77991.2,77992,77773.709,78038.745,
canvas.Screen,10_2_1,2023-01-14T03:37:47.069Z,,,b,,,45,749.929,timeout,e.jpg,,,79017.6,79017.3,78255.9,78256.4,78038.745,78788.674,
canvas.Screen,10_2_2,2023-01-14T03:37:47.395Z,,,b,,,45,333.385,timeout,e.jpg,,,79343.5,79343.2,79017.3,79017.7,78788.674,79122.059,
canvas.Screen,10_2_3,2023-01-14T03:37:48.452Z,,,b,TRUE,b,45,1276.841,response,e.jpg,b,keypress(f),80399.9,80398.9,79343.2,79343.6,79122.059,80188.317,
canvas.Screen,10_2_4,2023-01-14T03:37:48.716Z,,,b,,,45,250.239,timeout,e.jpg,,,80664.2,80663.9,80171.845,80401.3,80188.317,80438.556,
flow.Sequence,10_2,2023-01-14T03:37:48.716Z,,,b,,,45,2890.191,completion,e.jpg,,,80664.5,80663.9,77991.2,77991.9,77773.709,80438.556,
canvas.Screen,10_3_0,2023-01-14T03:37:48.972Z,,,d,,,90,250.175,timeout,eR.jpg,,,80920.1,80919.8,80663.9,80664.6,80438.556,80688.731,
canvas.Screen,10_3_1,2023-01-14T03:37:49.716Z,,,d,,,90,750.081,timeout,eR.jpg,,,81664.2,81664,80919.8,80920.3,80688.731,81438.812,
canvas.Screen,10_3_2,2023-01-14T03:37:50.051Z,,,d,,,90,337.272,timeout,eR.jpg,,,81999.7,81999.3,81664,81664.4,81438.812,81776.084,
canvas.Screen,10_3_3,2023-01-14T03:37:50.875Z,,,d,TRUE,d,90,1046.216,response,eR.jpg,d,keypress(j),82822.8,82822.3,81999.3,81999.9,81776.084,82621.484,
canvas.Screen,10_3_4,2023-01-14T03:37:51.149Z,,,d,,,90,251.607,timeout,eR.jpg,,,83097.1,83096.8,82590.222,82823.3,82621.484,82873.091,
flow.Sequence,10_3,2023-01-14T03:37:51.149Z,,,d,,,90,2658.244,completion,eR.jpg,,,83097.3,83096.8,80663.9,80664.6,80438.556,82873.091,
canvas.Screen,10_4_0,2023-01-14T03:37:51.475Z,,,b,,,225,331.857,timeout,e.jpg,,,83423.5,83423.2,83096.8,83097.4,82873.091,83204.948,
canvas.Screen,10_4_1,2023-01-14T03:37:52.236Z,,,b,,,225,749.865,timeout,e.jpg,,,84184,84183.7,83423.2,83424.4,83204.948,83954.813,
canvas.Screen,10_4_2,2023-01-14T03:37:52.564Z,,,b,,,225,334.659,timeout,e.jpg,,,84512,84511.8,84183.7,84184.3,83954.813,84289.472,
canvas.Screen,10_4_3,2023-01-14T03:37:54.174Z,,,b,TRUE,b,225,1832.728,response,e.jpg,b,keypress(f),86122.6,86122.2,84511.8,84512.2,84289.472,85920.898,
canvas.Screen,10_4_4,2023-01-14T03:37:54.523Z,,,b,,,225,350.621,timeout,e.jpg,,,86471.7,86471.3,85907.05,86129.8,85920.898,86271.519,
flow.Sequence,10_4,2023-01-14T03:37:54.524Z,,,b,,,225,3598.209,completion,e.jpg,,,86471.9,86471.3,83096.8,83097.4,82873.091,86271.519,
canvas.Screen,10_5_0,2023-01-14T03:37:54.876Z,,,b,,,90,332.841,timeout,e.jpg,,,86824.4,86824.1,86471.3,86472.1,86271.519,86604.36,
canvas.Screen,10_5_1,2023-01-14T03:37:55.646Z,,,b,,,90,766.627,timeout,e.jpg,,,87594.3,87594,86824.1,86824.6,86604.36,87370.987,
canvas.Screen,10_5_2,2023-01-14T03:37:55.971Z,,,b,,,90,316.661,timeout,e.jpg,,,87919.4,87919.1,87594,87594.8,87370.987,87687.648,
canvas.Screen,10_5_3,2023-01-14T03:37:57.472Z,,,b,TRUE,b,90,1730.752,response,e.jpg,b,keypress(f),89420.1,89418.4,87919.1,87919.6,87687.648,89220.599,
canvas.Screen,10_5_4,2023-01-14T03:37:57.749Z,,,b,,,90,250.391,timeout,e.jpg,,,89697,89696.6,89204.05,89430.6,89220.599,89470.99,
flow.Sequence,10_5,2023-01-14T03:37:57.749Z,,,b,,,90,3425.081,completion,e.jpg,,,89697.3,89696.6,86471.3,86472.1,86271.519,89470.99,
canvas.Screen,10_6_0,2023-01-14T03:37:58.075Z,,,b,,,270,333.07,timeout,e.jpg,,,90023.7,90023.3,89696.6,89697.4,89470.99,89804.06,
canvas.Screen,10_6_1,2023-01-14T03:37:58.843Z,,,b,,,270,760.458,timeout,e.jpg,,,90791.4,90791.1,90023.3,90023.9,89804.06,90564.518,
canvas.Screen,10_6_2,2023-01-14T03:37:59.172Z,,,b,,,270,339.347,timeout,e.jpg,,,91119.8,91119.5,90791.1,90791.6,90564.518,90903.865,
canvas.Screen,10_6_3,2023-01-14T03:37:59.756Z,,,b,TRUE,b,270,799.535,response,e.jpg,b,keypress(f),91704.5,91703.4,91119.5,91120.1,90903.865,91503.527,
canvas.Screen,10_6_4,2023-01-14T03:38:00.037Z,,,b,,,270,250.026,timeout,e.jpg,,,91985,91984.7,91476.247,91705.2,91503.527,91753.553,
flow.Sequence,10_6,2023-01-14T03:38:00.037Z,,,b,,,270,2513.71,completion,e.jpg,,,91985.2,91984.7,89696.6,89697.4,89470.99,91753.553,
canvas.Screen,10_7_0,2023-01-14T03:38:00.355Z,,,b,,,180,333.562,timeout,e.jpg,,,92303.2,92302.9,91984.7,91985.4,91753.553,92087.115,
canvas.Screen,10_7_1,2023-01-14T03:38:01.125Z,,,b,,,180,766.442,timeout,e.jpg,,,93073,93072.7,92302.9,92303.4,92087.115,92853.557,
canvas.Screen,10_7_2,2023-01-14T03:38:01.459Z,,,b,,,180,334.848,timeout,e.jpg,,,93407.2,93406.9,93072.7,93073.2,92853.557,93188.405,
canvas.Screen,10_7_3,2023-01-14T03:38:02.989Z,,,b,FALSE,b,180,1748.495,response,e.jpg,d,keypress(j),94937.4,94936.9,93406.9,93407.4,93188.405,94736.544,
canvas.Screen,10_7_4,2023-01-14T03:38:03.267Z,,,b,,,180,250.18,timeout,e.jpg,,,95215.7,95215.4,94719.221,94938.4,94736.544,94986.724,
flow.Sequence,10_7,2023-01-14T03:38:03.268Z,,,b,,,180,3461.847,completion,e.jpg,,,95216,95215.4,91984.7,91985.3,91753.553,94986.724,
canvas.Screen,10_8_0,2023-01-14T03:38:03.588Z,,,b,,,315,333.259,timeout,e.jpg,,,95536.4,95536.1,95215.4,95216.1,94986.724,95319.983,
canvas.Screen,10_8_1,2023-01-14T03:38:04.347Z,,,b,,,315,749.774,timeout,e.jpg,,,96295.4,96295.1,95536.1,95536.5,95319.983,96069.757,
canvas.Screen,10_8_2,2023-01-14T03:38:04.676Z,,,b,,,315,333.371,timeout,e.jpg,,,96624.8,96624.4,96295.1,96295.6,96069.757,96403.128,
canvas.Screen,10_8_3,2023-01-14T03:38:05.348Z,,,b,TRUE,b,315,892.272,response,e.jpg,b,keypress(f),97296.3,97295.4,96624.4,96624.9,96403.128,97102.784,
canvas.Screen,10_8_4,2023-01-14T03:38:05.707Z,,,b,,,315,320.065,timeout,e.jpg,,,97655.4,97655,97088.469,97308.8,97102.784,97422.849,
flow.Sequence,10_8,2023-01-14T03:38:05.707Z,,,b,,,315,2668.276,completion,e.jpg,,,97655.6,97655,95215.4,95216,94986.724,97422.849,
canvas.Screen,10_9_0,2023-01-14T03:38:05.955Z,,,d,,,0,263.692,timeout,eR.jpg,,,97903.5,97903.1,97655,97655.8,97422.849,97686.541,
canvas.Screen,10_9_1,2023-01-14T03:38:06.715Z,,,d,,,0,751.015,timeout,eR.jpg,,,98663.7,98663.3,97903.1,97903.7,97686.541,98437.556,
canvas.Screen,10_9_2,2023-01-14T03:38:07.043Z,,,d,,,0,332.125,timeout,eR.jpg,,,98991.4,98991.1,98663.3,98663.9,98437.556,98769.681,
canvas.Screen,10_9_3,2023-01-14T03:38:07.499Z,,,d,TRUE,d,0,675.819,response,eR.jpg,d,keypress(j),99446.5,99445.5,98991.1,98991.6,98769.681,99235.836,
canvas.Screen,10_9_4,2023-01-14T03:38:07.765Z,,,d,,,0,253.578,timeout,eR.jpg,,,99712.1,99711.9,99219.409,99447.6,99235.836,99489.414,
flow.Sequence,10_9,2023-01-14T03:38:07.765Z,,,d,,,0,2289.051,completion,eR.jpg,,,99712.4,99711.9,97655,97655.8,97422.849,99489.414,
canvas.Screen,10_10_0,2023-01-14T03:38:08.020Z,,,d,,,180,246.872,timeout,eR.jpg,,,99967.7,99967.6,99711.9,99712.5,99489.414,99736.286,
canvas.Screen,10_10_1,2023-01-14T03:38:08.772Z,,,d,,,180,766.464,timeout,eR.jpg,,,100719.8,100719.5,99967.6,99967.8,99736.286,100502.75,
canvas.Screen,10_10_2,2023-01-14T03:38:09.037Z,,,d,,,180,253.534,timeout,eR.jpg,,,100985.1,100984.7,100719.5,100719.9,100502.75,100756.284,
canvas.Screen,10_10_3,2023-01-14T03:38:11.286Z,,,d,TRUE,d,180,2476.116,response,eR.jpg,d,keypress(j),103233.2,103232.4,100984.7,100985.2,100756.284,103035.415,
canvas.Screen,10_10_4,2023-01-14T03:38:11.637Z,,,d,,,180,316.897,timeout,eR.jpg,,,103584.3,103583.9,103017.694,103240.5,103035.415,103352.312,
flow.Sequence,10_10,2023-01-14T03:38:11.637Z,,,d,,,180,4094.486,completion,eR.jpg,,,103584.6,103583.9,99711.9,99712.5,99489.414,103352.312,
canvas.Screen,10_11_0,2023-01-14T03:38:11.885Z,,,d,,,45,249.885,timeout,eR.jpg,,,103832.9,103832.7,103583.9,103584.7,103352.312,103602.197,
canvas.Screen,10_11_1,2023-01-14T03:38:12.708Z,,,d,,,45,833.266,timeout,eR.jpg,,,104655.5,104655.2,103832.7,103833.1,103602.197,104435.463,
canvas.Screen,10_11_2,2023-01-14T03:38:13.036Z,,,d,,,45,316.796,timeout,eR.jpg,,,104984,104983.7,104655.2,104655.7,104435.463,104752.259,
canvas.Screen,10_11_3,2023-01-14T03:38:14.138Z,,,d,TRUE,d,45,1332.041,response,eR.jpg,d,keypress(j),106085.4,106084.3,104983.7,104984.2,104752.259,105885.359,
canvas.Screen,10_11_4,2023-01-14T03:38:14.493Z,,,d,,,45,337.629,timeout,eR.jpg,,,106440.7,106440.4,105855.657,106087.1,105885.359,106222.988,
flow.Sequence,10_11,2023-01-14T03:38:14.493Z,,,d,,,45,3088.088,completion,eR.jpg,,,106441,106440.4,103583.9,103584.7,103352.312,106222.988,
canvas.Screen,10_12_0,2023-01-14T03:38:14.828Z,,,d,,,315,328.846,timeout,eR.jpg,,,106775.5,106775.2,106440.4,106441.1,106222.988,106551.834,
canvas.Screen,10_12_1,2023-01-14T03:38:15.580Z,,,d,,,315,751.333,timeout,eR.jpg,,,107528,107527.7,106775.2,106775.8,106551.834,107303.167,
canvas.Screen,10_12_2,2023-01-14T03:38:15.908Z,,,d,,,315,331.797,timeout,eR.jpg,,,107855.5,107855.2,107527.7,107528.3,107303.167,107634.964,
canvas.Screen,10_12_3,2023-01-14T03:38:17.508Z,,,d,TRUE,d,315,1819.736,response,eR.jpg,d,keypress(j),109455.8,109454.7,107855.2,107855.7,107634.964,109251.39,
canvas.Screen,10_12_4,2023-01-14T03:38:17.781Z,,,d,,,315,250.227,timeout,eR.jpg,,,109728.4,109728,109234.654,109463.7,109251.39,109501.617,
flow.Sequence,10_12,2023-01-14T03:38:17.781Z,,,d,,,315,3505.012,completion,eR.jpg,,,109728.6,109728,106440.4,106441.1,106222.988,109501.617,
canvas.Screen,10_13_0,2023-01-14T03:38:18.037Z,,,b,,,0,266.534,timeout,e.jpg,,,109984.6,109984.2,109728,109728.8,109501.617,109768.151,
canvas.Screen,10_13_1,2023-01-14T03:38:18.796Z,,,b,,,0,753.43,timeout,e.jpg,,,110743.6,110743.3,109984.2,109984.7,109768.151,110521.581,
canvas.Screen,10_13_2,2023-01-14T03:38:19.053Z,,,b,,,0,262.862,timeout,e.jpg,,,111000.3,111000,110743.3,110743.8,110521.581,110784.443,
canvas.Screen,10_13_3,2023-01-14T03:38:20.297Z,,,b,TRUE,b,0,1460.057,response,e.jpg,b,keypress(f),112245.1,112244.5,111000,111000.5,110784.443,112034.117,
canvas.Screen,10_13_4,2023-01-14T03:38:20.636Z,,,b,,,0,333.756,timeout,e.jpg,,,112584.1,112583.8,112017.429,112246,112034.117,112367.873,
flow.Sequence,10_13,2023-01-14T03:38:20.637Z,,,b,,,0,3082.183,completion,e.jpg,,,112584.4,112583.8,109728,109728.7,109501.617,112367.873,
canvas.Screen,10_14_0,2023-01-14T03:38:20.972Z,,,d,,,135,333.031,timeout,eR.jpg,,,112920.1,112919.7,112583.8,112584.6,112367.873,112700.904,
canvas.Screen,10_14_1,2023-01-14T03:38:21.732Z,,,d,,,135,750.086,timeout,eR.jpg,,,113679.7,113679.3,112919.7,112920.2,112700.904,113450.99,
canvas.Screen,10_14_2,2023-01-14T03:38:21.980Z,,,d,,,135,250.057,timeout,eR.jpg,,,113927.8,113927.5,113679.3,113679.8,113450.99,113701.047,
canvas.Screen,10_14_3,2023-01-14T03:38:22.598Z,,,d,TRUE,d,135,843.153,response,eR.jpg,d,keypress(j),114545.2,114544.2,113927.5,113928,113701.047,114333.849,
canvas.Screen,10_14_4,2023-01-14T03:38:22.940Z,,,d,,,135,338.232,timeout,eR.jpg,,,114887.8,114887.5,114319.844,114546.9,114333.849,114672.081,
flow.Sequence,10_14,2023-01-14T03:38:22.941Z,,,d,,,135,2519.627,completion,eR.jpg,,,114888.2,114887.5,112583.8,112584.6,112367.873,114672.081,
canvas.Screen,10_15_0,2023-01-14T03:38:23.204Z,,,d,,,270,262.528,timeout,eR.jpg,,,115151.7,115151.3,114887.5,114888.3,114672.081,114934.609,
canvas.Screen,10_15_1,2023-01-14T03:38:23.964Z,,,d,,,270,750.686,timeout,eR.jpg,,,115912,115911.7,115151.3,115151.9,114934.609,115685.295,
canvas.Screen,10_15_2,2023-01-14T03:38:24.221Z,,,d,,,270,265.363,timeout,eR.jpg,,,116168.4,116168,115911.7,115912.3,115685.295,115950.658,
canvas.Screen,10_15_3,2023-01-14T03:38:25.643Z,,,d,TRUE,d,270,1638.442,response,eR.jpg,d,keypress(j),117590.1,117589.1,116168,116168.6,115950.658,117383.378,
canvas.Screen,10_15_4,2023-01-14T03:38:25.917Z,,,d,,,270,250.473,timeout,eR.jpg,,,117864.2,117863.8,117366.979,117595.5,117383.378,117633.851,
flow.Sequence,10_15,2023-01-14T03:38:25.917Z,,,d,,,270,3191.719,completion,eR.jpg,,,117864.5,117863.8,114887.5,114888.3,114672.081,117633.851,
flow.Loop,10,2023-01-14T03:38:25.917Z,,,,,,,44974.161,completion,,,,117864.7,117863.8,73087.9,73088.9,72889.639,117633.851,
canvas.Screen,11_0_0,2023-01-14T03:38:26.165Z,,,d,,,45,249.793,timeout,eR.jpg,,,118112.6,118112.4,117863.8,117864.9,117633.851,117883.644,
canvas.Screen,11_0_1,2023-01-14T03:38:26.924Z,,,d,,,45,766.639,timeout,eR.jpg,,,118871.6,118871.3,118112.4,118112.8,117883.644,118650.283,
canvas.Screen,11_0_2,2023-01-14T03:38:27.180Z,,,d,,,45,249.785,timeout,eR.jpg,,,119128,119127.7,118871.3,118871.7,118650.283,118900.068,
canvas.Screen,11_0_3,2023-01-14T03:38:28.815Z,,,d,TRUE,d,45,1861.832,response,eR.jpg,d,keypress(j),120762.3,120761.9,119127.7,119128.2,118900.068,120549.689,
canvas.Screen,11_0_4,2023-01-14T03:38:29.157Z,,,d,,,45,333.626,timeout,eR.jpg,,,121104.9,121104.5,120533.916,120763.1,120549.689,120883.315,
flow.Sequence,11_0,2023-01-14T03:38:29.158Z,,,d,,,45,3470.649,completion,eR.jpg,,,121105.2,121104.5,117863.8,117864.9,117633.851,120883.315,
canvas.Screen,11_1_0,2023-01-14T03:38:29.413Z,,,b,,,270,260.597,timeout,e.jpg,,,121360.3,121360.1,121104.5,121105.3,120883.315,121143.912,
canvas.Screen,11_1_1,2023-01-14T03:38:30.173Z,,,b,,,270,756.016,timeout,e.jpg,,,122120.5,122120.3,121360.1,121360.6,121143.912,121899.928,
canvas.Screen,11_1_2,2023-01-14T03:38:30.428Z,,,b,,,270,251.022,timeout,e.jpg,,,122375.4,122375.1,122120.3,122120.8,121899.928,122150.95,
canvas.Screen,11_1_3,2023-01-14T03:38:32.322Z,,,b,TRUE,b,270,2117.65,response,e.jpg,b,keypress(f),124269.8,124268.6,122375.1,122375.6,122150.95,124095.988,
canvas.Screen,11_1_4,2023-01-14T03:38:32.708Z,,,b,,,270,338.061,timeout,e.jpg,,,124656,124655.7,124049.166,124281.6,124095.988,124434.049,
flow.Sequence,11_1,2023-01-14T03:38:32.709Z,,,b,,,270,3772.385,completion,e.jpg,,,124656.3,124655.7,121104.5,121105.3,120883.315,124434.049,
canvas.Screen,11_2_0,2023-01-14T03:38:33.036Z,,,d,,,90,332.088,timeout,eR.jpg,,,124983.5,124983,124655.7,124656.4,124434.049,124766.137,
canvas.Screen,11_2_1,2023-01-14T03:38:33.796Z,,,d,,,90,749.747,timeout,eR.jpg,,,125743.5,125743.2,124983,124983.7,124766.137,125515.884,
canvas.Screen,11_2_2,2023-01-14T03:38:34.044Z,,,d,,,90,253.727,timeout,eR.jpg,,,125991.2,125991,125743.2,125743.7,125515.884,125769.611,
canvas.Screen,11_2_3,2023-01-14T03:38:35.700Z,,,d,TRUE,d,90,1876.089,response,eR.jpg,d,keypress(j),127647.9,127645.7,125991,125991.5,125769.611,127448.83,
canvas.Screen,11_2_4,2023-01-14T03:38:36.053Z,,,d,,,90,333.487,timeout,eR.jpg,,,128000.9,128000.6,127431.546,127657.5,127448.83,127782.317,
flow.Sequence,11_2,2023-01-14T03:38:36.054Z,,,d,,,90,3566.551,completion,eR.jpg,,,128001.2,128000.6,124655.7,124656.4,124434.049,127782.317,
canvas.Screen,11_3_0,2023-01-14T03:38:36.388Z,,,b,,,135,333.463,timeout,e.jpg,,,128336,128335.7,128000.6,128001.4,127782.317,128115.78,
canvas.Screen,11_3_1,2023-01-14T03:38:37.148Z,,,b,,,135,749.835,timeout,e.jpg,,,129095.9,129095.5,128335.7,128336.2,128115.78,128865.615,
canvas.Screen,11_3_2,2023-01-14T03:38:37.396Z,,,b,,,135,250.221,timeout,e.jpg,,,129343.7,129343.4,129095.5,129096.1,128865.615,129115.836,
canvas.Screen,11_3_3,2023-01-14T03:38:39.066Z,,,b,TRUE,b,135,1896.664,response,e.jpg,b,keypress(f),131013.5,131012.5,129343.4,129343.9,129115.836,130815.172,
canvas.Screen,11_3_4,2023-01-14T03:38:39.420Z,,,b,,,135,333.515,timeout,e.jpg,,,131368.1,131367.7,130787.716,131016.5,130815.172,131148.687,
flow.Sequence,11_3,2023-01-14T03:38:39.421Z,,,b,,,135,3585.383,completion,e.jpg,,,131368.4,131367.7,128000.6,128001.4,127782.317,131148.687,
canvas.Screen,11_4_0,2023-01-14T03:38:39.757Z,,,d,,,225,333.884,timeout,eR.jpg,,,131704.2,131703.9,131367.7,131368.6,131148.687,131482.571,
canvas.Screen,11_4_1,2023-01-14T03:38:40.589Z,,,d,,,225,832.465,timeout,eR.jpg,,,132537,132536.6,131703.9,131704.3,131482.571,132315.036,
canvas.Screen,11_4_2,2023-01-14T03:38:40.844Z,,,d,,,225,253.615,timeout,eR.jpg,,,132791.4,132791.1,132536.6,132537.2,132315.036,132568.651,
canvas.Screen,11_4_3,2023-01-14T03:38:42.746Z,,,d,TRUE,d,225,2124.249,response,eR.jpg,d,keypress(j),134693.4,134692.9,132791.1,132791.7,132568.651,134497.85,
canvas.Screen,11_4_4,2023-01-14T03:38:43.028Z,,,d,,,225,250.169,timeout,eR.jpg,,,134975.5,134975.2,134477.786,134698.7,134497.85,134748.019,
flow.Sequence,11_4,2023-01-14T03:38:43.028Z,,,d,,,225,3826.513,completion,eR.jpg,,,134975.8,134975.2,131367.7,131368.5,131148.687,134748.019,
canvas.Screen,11_5_0,2023-01-14T03:38:43.291Z,,,b,,,45,270.701,timeout,e.jpg,,,135238.6,135238.4,134975.2,134976,134748.019,135018.72,
canvas.Screen,11_5_1,2023-01-14T03:38:44.052Z,,,b,,,45,762.351,timeout,e.jpg,,,135999.4,135999.2,135238.4,135238.7,135018.72,135781.071,
canvas.Screen,11_5_2,2023-01-14T03:38:44.309Z,,,b,,,45,250.257,timeout,e.jpg,,,136256.8,136256.5,135999.2,135999.6,135781.071,136031.328,
canvas.Screen,11_5_3,2023-01-14T03:38:46.900Z,,,b,TRUE,b,45,2815.672,response,e.jpg,b,keypress(f),138847.9,138847,136256.5,136257,136031.328,138647.536,
canvas.Screen,11_5_4,2023-01-14T03:38:47.252Z,,,b,,,45,333.798,timeout,e.jpg,,,139199.8,139199.6,138631.489,138855,138647.536,138981.334,
flow.Sequence,11_5,2023-01-14T03:38:47.252Z,,,b,,,45,4451.581,completion,e.jpg,,,139200.1,139199.6,134975.2,134975.9,134748.019,138981.334,
canvas.Screen,11_6_0,2023-01-14T03:38:47.589Z,,,d,,,315,332.922,timeout,eR.jpg,,,139536.9,139536.6,139199.6,139200.2,138981.334,139314.256,
canvas.Screen,11_6_1,2023-01-14T03:38:48.421Z,,,d,,,315,832.983,timeout,eR.jpg,,,140368.2,140368,139536.6,139536.9,139314.256,140147.239,
canvas.Screen,11_6_2,2023-01-14T03:38:48.677Z,,,d,,,315,260.834,timeout,eR.jpg,,,140624.2,140623.9,140368,140368.4,140147.239,140408.073,
canvas.Screen,11_6_3,2023-01-14T03:38:50.366Z,,,d,TRUE,d,315,1905.227,response,eR.jpg,d,keypress(j),142313.6,142313.3,140623.9,140624.4,140408.073,142113.58,
canvas.Screen,11_6_4,2023-01-14T03:38:50.644Z,,,d,,,315,250.361,timeout,eR.jpg,,,142591.7,142591.4,142101.713,142319.1,142113.58,142363.941,
flow.Sequence,11_6,2023-01-14T03:38:50.644Z,,,d,,,315,3610.066,completion,eR.jpg,,,142592.1,142591.4,139199.6,139200.2,138981.334,142363.941,
canvas.Screen,11_7_0,2023-01-14T03:38:50.894Z,,,d,,,270,253.426,timeout,eR.jpg,,,142841.3,142840.9,142591.4,142592.3,142363.941,142617.367,
canvas.Screen,11_7_1,2023-01-14T03:38:51.652Z,,,d,,,270,779.529,timeout,eR.jpg,,,143599.6,143599.3,142840.9,142841.4,142617.367,143396.896,
canvas.Screen,11_7_2,2023-01-14T03:38:52.004Z,,,d,,,270,333.776,timeout,eR.jpg,,,143952,143951.7,143599.3,143599.8,143396.896,143730.672,
canvas.Screen,11_7_3,2023-01-14T03:38:53.957Z,,,d,TRUE,d,270,2173.428,response,eR.jpg,d,keypress(j),145905,145904.1,143951.7,143952.2,143730.672,145696.412,
canvas.Screen,11_7_4,2023-01-14T03:38:54.233Z,,,d,,,270,266.679,timeout,eR.jpg,,,146180.3,146179.9,145680.383,145911.2,145696.412,145963.091,
flow.Sequence,11_7,2023-01-14T03:38:54.233Z,,,d,,,270,3815.959,completion,eR.jpg,,,146180.6,146179.9,142591.4,142592.2,142363.941,145963.091,
canvas.Screen,11_8_0,2023-01-14T03:38:54.564Z,,,d,,,135,316.887,timeout,eR.jpg,,,146512.1,146511.8,146179.9,146180.8,145963.091,146279.978,
canvas.Screen,11_8_1,2023-01-14T03:38:55.308Z,,,d,,,135,749.621,timeout,eR.jpg,,,147255.6,147255.2,146511.8,146512.2,146279.978,147029.599,
canvas.Screen,11_8_2,2023-01-14T03:38:55.636Z,,,d,,,135,333.444,timeout,eR.jpg,,,147584.1,147583.7,147255.2,147255.8,147029.599,147363.043,
canvas.Screen,11_8_3,2023-01-14T03:38:57.495Z,,,d,TRUE,d,135,2078.957,response,eR.jpg,d,keypress(j),149442.6,149442,147583.7,147584.3,147363.043,149246.185,
canvas.Screen,11_8_4,2023-01-14T03:38:57.852Z,,,d,,,135,337.751,timeout,eR.jpg,,,149799.9,149799.6,149232.992,149449.9,149246.185,149583.936,
flow.Sequence,11_8,2023-01-14T03:38:57.853Z,,,d,,,135,3836.509,completion,eR.jpg,,,149800.2,149799.6,146179.9,146180.7,145963.091,149583.936,
canvas.Screen,11_9_0,2023-01-14T03:38:58.188Z,,,b,,,90,328.906,timeout,e.jpg,,,150135.6,150135.3,149799.6,149800.4,149583.936,149912.842,
canvas.Screen,11_9_1,2023-01-14T03:38:58.946Z,,,b,,,90,751.137,timeout,e.jpg,,,150893.8,150893.5,150135.3,150135.8,149912.842,150663.979,
canvas.Screen,11_9_2,2023-01-14T03:38:59.197Z,,,b,,,90,248.709,timeout,e.jpg,,,151144.3,151144.1,150893.5,150894.1,150663.979,150912.688,
canvas.Screen,11_9_3,2023-01-14T03:39:01.464Z,,,b,TRUE,b,90,2498.812,response,e.jpg,b,keypress(f),153412,153411.5,151144.1,151144.5,150912.688,153211.977,
canvas.Screen,11_9_4,2023-01-14T03:39:01.741Z,,,b,,,90,253.496,timeout,e.jpg,,,153688.2,153687.9,153195.661,153417.4,153211.977,153465.473,
flow.Sequence,11_9,2023-01-14T03:39:01.741Z,,,b,,,90,4103.964,completion,e.jpg,,,153688.5,153687.9,149799.6,149800.3,149583.936,153465.473,
canvas.Screen,11_10_0,2023-01-14T03:39:01.996Z,,,b,,,180,246.663,timeout,e.jpg,,,153943.5,153943.2,153687.9,153688.7,153465.473,153712.136,
canvas.Screen,11_10_1,2023-01-14T03:39:02.740Z,,,b,,,180,750.001,timeout,e.jpg,,,154687.9,154687.5,153943.2,153943.7,153712.136,154462.137,
canvas.Screen,11_10_2,2023-01-14T03:39:03.069Z,,,b,,,180,333.254,timeout,e.jpg,,,155016.9,155016.5,154687.5,154688.1,154462.137,154795.391,
canvas.Screen,11_10_3,2023-01-14T03:39:05.729Z,,,b,TRUE,b,180,2880.709,response,e.jpg,b,keypress(f),157676.5,157676.1,155016.5,155017.1,154795.391,157478.307,
canvas.Screen,11_10_4,2023-01-14T03:39:06.084Z,,,b,,,180,333.382,timeout,e.jpg,,,158032,158031.7,157461.536,157684,157478.307,157811.689,
flow.Sequence,11_10,2023-01-14T03:39:06.085Z,,,b,,,180,4566.227,completion,e.jpg,,,158032.4,158031.7,153687.9,153688.6,153465.473,157811.689,
canvas.Screen,11_11_0,2023-01-14T03:39:06.340Z,,,b,,,0,251.22,timeout,e.jpg,,,158287.7,158287.4,158031.7,158032.6,157811.689,158062.909,
canvas.Screen,11_11_1,2023-01-14T03:39:07.098Z,,,b,,,0,765.241,timeout,e.jpg,,,159046.1,159045.7,158287.4,158287.9,158062.909,158828.15,
canvas.Screen,11_11_2,2023-01-14T03:39:07.356Z,,,b,,,0,253.579,timeout,e.jpg,,,159303.6,159303.3,159045.7,159046.3,158828.15,159081.729,
canvas.Screen,11_11_3,2023-01-14T03:39:10.580Z,,,b,TRUE,b,0,3446.071,response,e.jpg,b,keypress(f),162528.6,162527.8,159303.3,159303.8,159081.729,162327.505,
canvas.Screen,11_11_4,2023-01-14T03:39:10.860Z,,,b,,,0,250.186,timeout,e.jpg,,,162808,162807.6,162310.959,162540.4,162327.505,162577.691,
flow.Sequence,11_11,2023-01-14T03:39:10.860Z,,,b,,,0,4995.911,completion,e.jpg,,,162808.3,162807.6,158031.7,158032.5,157811.689,162577.691,
canvas.Screen,11_12_0,2023-01-14T03:39:11.180Z,,,b,,,225,333.239,timeout,e.jpg,,,163127.9,163127.6,162807.6,162808.4,162577.691,162910.93,
canvas.Screen,11_12_1,2023-01-14T03:39:11.939Z,,,b,,,225,749.924,timeout,e.jpg,,,163887.7,163887.4,163127.6,163128.2,162910.93,163660.854,
canvas.Screen,11_12_2,2023-01-14T03:39:12.268Z,,,b,,,225,333.336,timeout,e.jpg,,,164215.9,164215.5,163887.4,163887.9,163660.854,163994.19,
canvas.Screen,11_12_3,2023-01-14T03:39:14.478Z,,,b,TRUE,b,225,2430.81,response,e.jpg,b,keypress(f),166425.9,166425,164215.5,164216.1,163994.19,166226.987,
canvas.Screen,11_12_4,2023-01-14T03:39:14.756Z,,,b,,,225,259.572,timeout,e.jpg,,,166704,166703.6,166214.599,166434.8,166226.987,166486.559,
flow.Sequence,11_12,2023-01-14T03:39:14.756Z,,,b,,,225,4125.909,completion,e.jpg,,,166704.3,166703.6,162807.6,162808.4,162577.691,166486.559,
canvas.Screen,11_13_0,2023-01-14T03:39:15.099Z,,,d,,,0,340.679,timeout,eR.jpg,,,167047.7,167047.4,166703.6,166704.5,166486.559,166827.238,
canvas.Screen,11_13_1,2023-01-14T03:39:15.859Z,,,d,,,0,751.232,timeout,eR.jpg,,,167807.8,167807.4,167047.4,167047.9,166827.238,167578.47,
canvas.Screen,11_13_2,2023-01-14T03:39:16.108Z,,,d,,,0,248.861,timeout,eR.jpg,,,168056.2,168055.9,167807.4,167808,167578.47,167827.331,
canvas.Screen,11_13_3,2023-01-14T03:39:16.955Z,,,d,TRUE,d,0,1074.569,response,eR.jpg,d,keypress(j),168902.8,168901.9,168055.9,168056.4,167827.331,168693.313,
canvas.Screen,11_13_4,2023-01-14T03:39:17.233Z,,,d,,,0,270.933,timeout,eR.jpg,,,169180.9,169180.6,168683.075,168903.4,168693.313,168964.246,
flow.Sequence,11_13,2023-01-14T03:39:17.233Z,,,d,,,0,2694.041,completion,eR.jpg,,,169181.2,169180.6,166703.6,166704.5,166486.559,168964.246,
canvas.Screen,11_14_0,2023-01-14T03:39:17.493Z,,,b,,,315,246.077,timeout,e.jpg,,,169440.9,169440.6,169180.6,169181.4,168964.246,169210.323,
canvas.Screen,11_14_1,2023-01-14T03:39:18.244Z,,,b,,,315,749.695,timeout,e.jpg,,,170191.8,170191.5,169440.6,169441.1,169210.323,169960.018,
canvas.Screen,11_14_2,2023-01-14T03:39:18.492Z,,,b,,,315,263.229,timeout,e.jpg,,,170440.5,170440.2,170191.5,170192.1,169960.018,170223.247,
canvas.Screen,11_14_3,2023-01-14T03:39:19.831Z,,,b,TRUE,b,315,1555.253,response,e.jpg,b,keypress(f),171779.5,171778.5,170440.2,170440.7,170223.247,171576.222,
canvas.Screen,11_14_4,2023-01-14T03:39:20.109Z,,,b,,,315,250.28,timeout,e.jpg,,,172057,172056.7,171559.447,171788.5,171576.222,171826.502,
flow.Sequence,11_14,2023-01-14T03:39:20.109Z,,,b,,,315,3092.454,completion,e.jpg,,,172057.3,172056.7,169180.6,169181.3,168964.246,171826.502,
canvas.Screen,11_15_0,2023-01-14T03:39:20.356Z,,,d,,,180,250.046,timeout,eR.jpg,,,172304.2,172303.8,172056.7,172057.6,171826.502,172076.548,
canvas.Screen,11_15_1,2023-01-14T03:39:21.108Z,,,d,,,180,749.803,timeout,eR.jpg,,,173055.8,173055.5,172303.8,172304.4,172076.548,172826.351,
canvas.Screen,11_15_2,2023-01-14T03:39:21.428Z,,,d,,,180,333.359,timeout,eR.jpg,,,173375.9,173375.6,173055.5,173056,172826.351,173159.71,
canvas.Screen,11_15_3,2023-01-14T03:39:23.696Z,,,d,TRUE,d,180,2483.39,response,eR.jpg,d,keypress(j),175643.8,175643.1,173375.6,173376.1,173159.71,175442.476,
canvas.Screen,11_15_4,2023-01-14T03:39:24.044Z,,,d,,,180,319.47,timeout,eR.jpg,,,175992.5,175992.2,175429.936,175651.2,175442.476,175761.946,
flow.Sequence,11_15,2023-01-14T03:39:24.045Z,,,d,,,180,4165.698,completion,eR.jpg,,,175992.8,175992.2,172056.7,172057.4,171826.502,175761.946,
flow.Loop,11,2023-01-14T03:39:24.045Z,,,,,,,58358.349,completion,,,,175993,175992.2,117863.8,117864.8,117633.851,175761.946,
canvas.Screen,12_0_0,2023-01-14T03:39:24.292Z,,,b,,,0,247.5,timeout,e.jpg,,,176240.3,176240,175992.2,175993.2,175761.946,176009.446,
canvas.Screen,12_0_1,2023-01-14T03:39:25.115Z,,,b,,,0,833.461,timeout,e.jpg,,,177063.7,177063.4,176240,176240.4,176009.446,176842.907,
canvas.Screen,12_0_2,2023-01-14T03:39:25.372Z,,,b,,,0,249.592,timeout,e.jpg,,,177320.7,177320.4,177063.4,177063.9,176842.907,177092.499,
canvas.Screen,12_0_3,2023-01-14T03:39:26.196Z,,,b,TRUE,b,0,1051.201,response,e.jpg,b,keypress(f),178144.1,178143.7,177320.4,177320.9,177092.499,177942.065,
canvas.Screen,12_0_4,2023-01-14T03:39:26.548Z,,,b,,,0,334.755,timeout,e.jpg,,,178496.1,178495.9,177914.072,178144.6,177942.065,178276.82,
flow.Sequence,12_0,2023-01-14T03:39:26.548Z,,,b,,,0,2733.954,completion,e.jpg,,,178496.5,178495.9,175992.2,175993.2,175761.946,178276.82,
canvas.Screen,12_1_0,2023-01-14T03:39:26.885Z,,,b,,,270,332.258,timeout,e.jpg,,,178833.6,178833.3,178495.9,178496.7,178276.82,178609.078,
canvas.Screen,12_1_1,2023-01-14T03:39:27.643Z,,,b,,,270,766.505,timeout,e.jpg,,,179591.6,179591.3,178833.3,178833.8,178609.078,179375.583,
canvas.Screen,12_1_2,2023-01-14T03:39:27.909Z,,,b,,,270,263.049,timeout,e.jpg,,,179856.8,179856.6,179591.3,179591.8,179375.583,179638.632,
canvas.Screen,12_1_3,2023-01-14T03:39:29.340Z,,,b,TRUE,b,270,1647.968,response,e.jpg,b,keypress(f),181288,181286.6,179856.6,179857,179638.632,181107.18,
canvas.Screen,12_1_4,2023-01-14T03:39:29.636Z,,,b,,,270,251.342,timeout,e.jpg,,,181583.8,181583.5,181058.265,181290.8,181107.18,181358.522,
flow.Sequence,12_1,2023-01-14T03:39:29.636Z,,,b,,,270,3306.68,completion,e.jpg,,,181584.2,181583.5,178495.9,178496.7,178276.82,181358.522,
canvas.Screen,12_2_0,2023-01-14T03:39:29.963Z,,,d,,,90,333.386,timeout,eR.jpg,,,181911.5,181911.3,181583.5,181584.4,181358.522,181691.908,
canvas.Screen,12_2_1,2023-01-14T03:39:30.723Z,,,d,,,90,750.037,timeout,eR.jpg,,,182671.6,182671.4,181911.3,181911.8,181691.908,182441.945,
canvas.Screen,12_2_2,2023-01-14T03:39:30.972Z,,,d,,,90,250.164,timeout,eR.jpg,,,182920.3,182920.1,182671.4,182671.8,182441.945,182692.109,
canvas.Screen,12_2_3,2023-01-14T03:39:32.161Z,,,d,FALSE,d,90,1416.091,response,eR.jpg,b,keypress(f),184109.1,184108.2,182920.1,182920.5,182692.109,183907.929,
canvas.Screen,12_2_4,2023-01-14T03:39:32.436Z,,,d,,,90,242.862,timeout,eR.jpg,,,184384.2,184384,183895.57,184115.6,183907.929,184150.791,
flow.Sequence,12_2,2023-01-14T03:39:32.436Z,,,d,,,90,3025.478,completion,eR.jpg,,,184384.5,184384,181583.5,181584.3,181358.522,184150.791,
canvas.Screen,12_3_0,2023-01-14T03:39:32.684Z,,,d,,,315,257.61,timeout,eR.jpg,,,184631.8,184631.5,184384,184384.6,184150.791,184408.401,
canvas.Screen,12_3_1,2023-01-14T03:39:33.436Z,,,d,,,315,750.925,timeout,eR.jpg,,,185384,185383.8,184631.5,184632,184408.401,185159.326,
canvas.Screen,12_3_2,2023-01-14T03:39:33.763Z,,,d,,,315,331.986,timeout,eR.jpg,,,185711.5,185711.3,185383.8,185384.2,185159.326,185491.312,
canvas.Screen,12_3_3,2023-01-14T03:39:34.489Z,,,d,TRUE,d,315,944.888,response,eR.jpg,d,keypress(j),186437.4,186436.2,185711.3,185711.6,185491.312,186224.378,
canvas.Screen,12_3_4,2023-01-14T03:39:34.828Z,,,d,,,315,334.743,timeout,eR.jpg,,,186776.8,186776.3,186210.598,186439.2,186224.378,186559.121,
flow.Sequence,12_3,2023-01-14T03:39:34.829Z,,,d,,,315,2625.509,completion,eR.jpg,,,186777.1,186776.3,184384,184384.6,184150.791,186559.121,
canvas.Screen,12_4_0,2023-01-14T03:39:35.092Z,,,d,,,225,282.008,timeout,eR.jpg,,,187040.3,187039.9,186776.3,186777.2,186559.121,186841.129,
canvas.Screen,12_4_1,2023-01-14T03:39:35.875Z,,,d,,,225,749.888,timeout,eR.jpg,,,187823.2,187822.9,187039.9,187040.5,186841.129,187591.017,
canvas.Screen,12_4_2,2023-01-14T03:39:36.196Z,,,d,,,225,320.518,timeout,eR.jpg,,,188144.6,188144.4,187822.9,187823.4,187591.017,187911.535,
canvas.Screen,12_4_3,2023-01-14T03:39:37.836Z,,,d,TRUE,d,225,1872.465,response,eR.jpg,d,keypress(j),189784.8,189784,188144.4,188144.9,187911.535,189590.906,
canvas.Screen,12_4_4,2023-01-14T03:39:38.130Z,,,d,,,225,266.709,timeout,eR.jpg,,,190078,190077.6,189573.613,189790.3,189590.906,189857.615,
flow.Sequence,12_4,2023-01-14T03:39:38.130Z,,,d,,,225,3518.479,completion,eR.jpg,,,190078.2,190077.6,186776.3,186777.1,186559.121,189857.615,
canvas.Screen,12_5_0,2023-01-14T03:39:38.388Z,,,b,,,225,249.656,timeout,e.jpg,,,190336.7,190336.4,190077.6,190078.4,189857.615,190107.271,
canvas.Screen,12_5_1,2023-01-14T03:39:39.139Z,,,b,,,225,749.977,timeout,e.jpg,,,191087.7,191087.4,190336.4,190336.9,190107.271,190857.248,
canvas.Screen,12_5_2,2023-01-14T03:39:39.459Z,,,b,,,225,333.543,timeout,e.jpg,,,191407.6,191407.3,191087.4,191088,190857.248,191190.791,
canvas.Screen,12_5_3,2023-01-14T03:39:41.184Z,,,b,TRUE,b,225,1941.209,response,e.jpg,b,keypress(f),193132.6,193132,191407.3,191408,191190.791,192923.39,
canvas.Screen,12_5_4,2023-01-14T03:39:41.452Z,,,b,,,225,250.689,timeout,e.jpg,,,193399.9,193399.6,192912.846,193133.1,192923.39,193174.079,
flow.Sequence,12_5,2023-01-14T03:39:41.452Z,,,b,,,225,3541.985,completion,e.jpg,,,193400.3,193399.6,190077.6,190078.3,189857.615,193174.079,
canvas.Screen,12_6_0,2023-01-14T03:39:41.721Z,,,d,,,0,267.833,timeout,eR.jpg,,,193669,193668.8,193399.6,193400.4,193174.079,193441.912,
canvas.Screen,12_6_1,2023-01-14T03:39:42.547Z,,,d,,,0,831.292,timeout,eR.jpg,,,194495.4,194495.3,193668.8,193669.2,193441.912,194273.204,
canvas.Screen,12_6_2,2023-01-14T03:39:42.803Z,,,d,,,0,253.751,timeout,eR.jpg,,,194751.7,194751.4,194495.3,194495.6,194273.204,194526.955,
canvas.Screen,12_6_3,2023-01-14T03:39:43.549Z,,,d,TRUE,d,0,969.345,response,eR.jpg,d,keypress(j),195497.6,195496.3,194751.4,194751.9,194526.955,195289.772,
canvas.Screen,12_6_4,2023-01-14T03:39:43.820Z,,,d,,,0,250.533,timeout,eR.jpg,,,195768.7,195768.3,195272.983,195499.1,195289.772,195540.305,
flow.Sequence,12_6,2023-01-14T03:39:43.821Z,,,d,,,0,2594.221,completion,eR.jpg,,,195769,195768.3,193399.6,193400.4,193174.079,195540.305,
canvas.Screen,12_7_0,2023-01-14T03:39:44.068Z,,,b,,,45,249.665,timeout,e.jpg,,,196016.4,196016.1,195768.3,195769.1,195540.305,195789.97,
canvas.Screen,12_7_1,2023-01-14T03:39:44.820Z,,,b,,,45,750.004,timeout,e.jpg,,,196768.6,196768.4,196016.1,196016.6,195789.97,196539.974,
canvas.Screen,12_7_2,2023-01-14T03:39:45.075Z,,,b,,,45,266.36,timeout,e.jpg,,,197023.2,197022.9,196768.4,196768.7,196539.974,196806.334,
canvas.Screen,12_7_3,2023-01-14T03:39:47.177Z,,,b,TRUE,b,45,2318.266,response,e.jpg,b,keypress(f),199125.7,199124.6,197022.9,197023.5,196806.334,198922.68,
canvas.Screen,12_7_4,2023-01-14T03:39:47.523Z,,,b,,,45,317.121,timeout,e.jpg,,,199471.4,199471,198906.773,199137.3,198922.68,199239.801,
flow.Sequence,12_7,2023-01-14T03:39:47.523Z,,,b,,,45,3930.695,completion,e.jpg,,,199471.7,199471,195768.3,195769,195540.305,199239.801,
canvas.Screen,12_8_0,2023-01-14T03:39:47.851Z,,,d,,,45,336.896,timeout,eR.jpg,,,199799.3,199799,199471,199471.9,199239.801,199576.697,
canvas.Screen,12_8_1,2023-01-14T03:39:48.611Z,,,d,,,45,763.161,timeout,eR.jpg,,,200559.3,200559,199799,199799.7,199576.697,200339.858,
canvas.Screen,12_8_2,2023-01-14T03:39:48.868Z,,,d,,,45,250.747,timeout,eR.jpg,,,200816.8,200816.4,200559,200559.6,200339.858,200590.605,
canvas.Screen,12_8_3,2023-01-14T03:39:51.108Z,,,d,TRUE,d,45,2465.395,response,eR.jpg,d,keypress(j),203056.7,203056,200816.4,200817,200590.605,202855.462,
canvas.Screen,12_8_4,2023-01-14T03:39:51.387Z,,,d,,,45,253.125,timeout,eR.jpg,,,203335.6,203335.2,202838.679,203062.3,202855.462,203108.587,
flow.Sequence,12_8,2023-01-14T03:39:51.388Z,,,d,,,45,4095.399,completion,eR.jpg,,,203335.8,203335.2,199471,199471.8,199239.801,203108.587,
canvas.Screen,12_9_0,2023-01-14T03:39:51.644Z,,,b,,,180,264.081,timeout,e.jpg,,,203592.1,203591.7,203335.2,203336.1,203108.587,203372.668,
canvas.Screen,12_9_1,2023-01-14T03:39:52.403Z,,,b,,,180,749.599,timeout,e.jpg,,,204351.6,204351.3,203591.7,203592.4,203372.668,204122.267,
canvas.Screen,12_9_2,2023-01-14T03:39:52.652Z,,,b,,,180,244.624,timeout,e.jpg,,,204600,204599.6,204351.3,204351.8,204122.267,204366.891,
canvas.Screen,12_9_3,2023-01-14T03:39:54.887Z,,,b,TRUE,b,180,2467.609,response,e.jpg,b,keypress(f),206835.5,206834.5,204599.6,204600.3,204366.891,206638.29,
canvas.Screen,12_9_4,2023-01-14T03:39:55.244Z,,,b,,,180,333.55,timeout,e.jpg,,,207192,207191.6,206621.204,206843.7,206638.29,206971.84,
flow.Sequence,12_9,2023-01-14T03:39:55.244Z,,,b,,,180,4083.013,completion,e.jpg,,,207192.3,207191.6,203335.2,203336,203108.587,206971.84,
canvas.Screen,12_10_0,2023-01-14T03:39:55.508Z,,,b,,,315,266.531,timeout,e.jpg,,,207456,207455.9,207191.6,207192.4,206971.84,207238.371,
canvas.Screen,12_10_1,2023-01-14T03:39:56.267Z,,,b,,,315,750.037,timeout,e.jpg,,,208215.6,208215.2,207455.9,207456.1,207238.371,207988.408,
canvas.Screen,12_10_2,2023-01-14T03:39:56.595Z,,,b,,,315,333.234,timeout,e.jpg,,,208543.5,208543.1,208215.2,208215.7,207988.408,208321.642,
canvas.Screen,12_10_3,2023-01-14T03:39:58.495Z,,,b,TRUE,b,315,2120.458,response,e.jpg,b,keypress(f),210442.9,210442.1,208543.1,208543.7,208321.642,210237.78,
canvas.Screen,12_10_4,2023-01-14T03:39:58.772Z,,,b,,,315,250.526,timeout,e.jpg,,,210720,210719.6,210227.871,210452.1,210237.78,210488.306,
flow.Sequence,12_10,2023-01-14T03:39:58.772Z,,,b,,,315,3747.76,completion,e.jpg,,,210720.3,210719.6,207191.6,207192.3,206971.84,210488.306,
canvas.Screen,12_11_0,2023-01-14T03:39:59.091Z,,,b,,,135,333.525,timeout,e.jpg,,,211039.6,211039.2,210719.6,210720.5,210488.306,210821.831,
canvas.Screen,12_11_1,2023-01-14T03:39:59.853Z,,,b,,,135,749.412,timeout,e.jpg,,,211800.9,211800.6,211039.2,211039.7,210821.831,211571.243,
canvas.Screen,12_11_2,2023-01-14T03:40:00.099Z,,,b,,,135,253.348,timeout,e.jpg,,,212047.4,212047.1,211800.6,211801.1,211571.243,211824.591,
canvas.Screen,12_11_3,2023-01-14T03:40:02.622Z,,,b,TRUE,b,135,2744.609,response,e.jpg,b,keypress(f),214570.4,214569.2,212047.1,212047.7,211824.591,214370.681,
canvas.Screen,12_11_4,2023-01-14T03:40:02.972Z,,,b,,,135,333.374,timeout,e.jpg,,,214920.3,214920.1,214362.144,214581.6,214370.681,214704.055,
flow.Sequence,12_11,2023-01-14T03:40:02.972Z,,,b,,,135,4431.794,completion,e.jpg,,,214920.7,214920.1,210719.6,210720.4,210488.306,214704.055,
canvas.Screen,12_12_0,2023-01-14T03:40:03.308Z,,,d,,,270,333.409,timeout,eR.jpg,,,215256.6,215256.3,214920.1,214920.9,214704.055,215037.464,
canvas.Screen,12_12_1,2023-01-14T03:40:04.067Z,,,d,,,270,749.789,timeout,eR.jpg,,,216015.5,216015.2,215256.3,215256.8,215037.464,215787.253,
canvas.Screen,12_12_2,2023-01-14T03:40:04.315Z,,,d,,,270,250.514,timeout,eR.jpg,,,216263.8,216263.5,216015.2,216015.7,215787.253,216037.767,
canvas.Screen,12_12_3,2023-01-14T03:40:06.658Z,,,d,TRUE,d,270,2568.133,response,eR.jpg,d,keypress(j),218606.4,218605.9,216263.5,216264,216037.767,218403.354,
canvas.Screen,12_12_4,2023-01-14T03:40:07.004Z,,,d,,,270,316.918,timeout,eR.jpg,,,218952.1,218951.7,218387.599,218613.9,218403.354,218720.272,
flow.Sequence,12_12,2023-01-14T03:40:07.004Z,,,d,,,270,4247.645,completion,eR.jpg,,,218952.5,218951.7,214920.1,214920.8,214704.055,218720.272,
canvas.Screen,12_13_0,2023-01-14T03:40:07.331Z,,,d,,,180,337.094,timeout,eR.jpg,,,219279.7,219279.4,218951.7,218952.6,218720.272,219057.366,
canvas.Screen,12_13_1,2023-01-14T03:40:08.092Z,,,d,,,180,763.127,timeout,eR.jpg,,,220039.9,220039.5,219279.4,219280,219057.366,219820.493,
canvas.Screen,12_13_2,2023-01-14T03:40:08.348Z,,,d,,,180,250.82,timeout,eR.jpg,,,220296.5,220296.2,220039.5,220040.1,219820.493,220071.313,
canvas.Screen,12_13_3,2023-01-14T03:40:10.695Z,,,d,TRUE,d,180,2571.187,response,eR.jpg,d,keypress(j),222643.3,222642.5,220296.2,220296.7,220071.313,222436.201,
canvas.Screen,12_13_4,2023-01-14T03:40:10.964Z,,,d,,,180,253.342,timeout,eR.jpg,,,222912.2,222911.8,222419.758,222649.5,222436.201,222689.543,
flow.Sequence,12_13,2023-01-14T03:40:10.964Z,,,d,,,180,4191.528,completion,eR.jpg,,,222912.4,222911.8,218951.7,218952.5,218720.272,222689.543,
canvas.Screen,12_14_0,2023-01-14T03:40:11.220Z,,,d,,,135,246.985,timeout,eR.jpg,,,223167.9,223167.8,222911.8,222912.5,222689.543,222936.528,
canvas.Screen,12_14_1,2023-01-14T03:40:11.972Z,,,d,,,135,766.519,timeout,eR.jpg,,,223920.3,223920,223167.8,223168,222936.528,223703.047,
canvas.Screen,12_14_2,2023-01-14T03:40:12.235Z,,,d,,,135,262.325,timeout,eR.jpg,,,224183.7,224183.4,223920,223920.5,223703.047,223965.372,
canvas.Screen,12_14_3,2023-01-14T03:40:15.324Z,,,d,TRUE,d,135,3306.528,response,eR.jpg,d,keypress(j),227272.4,227271.9,224183.4,224184,223965.372,227069.009,
canvas.Screen,12_14_4,2023-01-14T03:40:15.603Z,,,d,,,135,283.261,timeout,eR.jpg,,,227551.3,227550.9,227051.848,227280,227069.009,227352.27,
flow.Sequence,12_14,2023-01-14T03:40:15.603Z,,,d,,,135,4861.357,completion,eR.jpg,,,227551.6,227550.9,222911.8,222912.5,222689.543,227352.27,
canvas.Screen,12_15_0,2023-01-14T03:40:15.956Z,,,b,,,90,333.658,timeout,e.jpg,,,227903.9,227903.6,227550.9,227551.7,227352.27,227685.928,
canvas.Screen,12_15_1,2023-01-14T03:40:16.724Z,,,b,,,90,766.638,timeout,e.jpg,,,228672.2,228671.9,227903.6,227904,227685.928,228452.566,
canvas.Screen,12_15_2,2023-01-14T03:40:16.980Z,,,b,,,90,249.977,timeout,e.jpg,,,228927.9,228927.6,228671.9,228672.4,228452.566,228702.543,
canvas.Screen,12_15_3,2023-01-14T03:40:18.581Z,,,b,TRUE,b,90,1825.657,response,e.jpg,b,keypress(f),230529,230528.2,228927.6,228928.1,228702.543,230349.134,
canvas.Screen,12_15_4,2023-01-14T03:40:18.955Z,,,b,,,90,336.212,timeout,e.jpg,,,230903.3,230902.9,230307.361,230534.4,230349.134,230685.346,
flow.Sequence,12_15,2023-01-14T03:40:18.955Z,,,b,,,90,3550.63,completion,e.jpg,,,230903.5,230902.9,227550.9,227551.7,227352.27,230685.346,
flow.Loop,12,2023-01-14T03:40:18.956Z,,,,,,,55140.954,completion,,,,230903.7,230902.9,175992.2,175993.1,175761.946,230685.346,
canvas.Screen,13_0_0,2023-01-14T03:40:19.220Z,,,d,,,225,251.377,timeout,eR.jpg,,,231168.1,231167.8,230902.9,230904,230685.346,230936.723,
canvas.Screen,13_0_1,2023-01-14T03:40:19.971Z,,,d,,,225,765.055,timeout,eR.jpg,,,231919.7,231919.4,231167.8,231168.4,230936.723,231701.778,
canvas.Screen,13_0_2,2023-01-14T03:40:20.308Z,,,d,,,225,335.043,timeout,eR.jpg,,,232256.5,232256.2,231919.4,231919.9,231701.778,232036.821,
canvas.Screen,13_0_3,2023-01-14T03:40:21.760Z,,,d,TRUE,d,225,1670.979,response,eR.jpg,d,keypress(j),233708.6,233707.8,232256.2,232256.7,232036.821,233501.411,
canvas.Screen,13_0_4,2023-01-14T03:40:22.035Z,,,d,,,225,283.609,timeout,eR.jpg,,,233983.6,233983.3,233484.777,233709.6,233501.411,233785.02,
flow.Sequence,13_0,2023-01-14T03:40:22.036Z,,,d,,,225,3297.954,completion,eR.jpg,,,233984,233983.3,230902.9,230904,230685.346,233785.02,
canvas.Screen,13_1_0,2023-01-14T03:40:22.387Z,,,b,,,180,320.14,timeout,e.jpg,,,234335.7,234335.4,233983.3,233984.1,233785.02,234105.16,
canvas.Screen,13_1_1,2023-01-14T03:40:23.140Z,,,b,,,180,763.065,timeout,e.jpg,,,235087.8,235087.5,234335.4,234336,234105.16,234868.225,
canvas.Screen,13_1_2,2023-01-14T03:40:23.403Z,,,b,,,180,266.458,timeout,e.jpg,,,235351.5,235351.4,235087.5,235088,234868.225,235134.683,
canvas.Screen,13_1_3,2023-01-14T03:40:24.367Z,,,b,TRUE,b,180,1179.817,response,e.jpg,b,keypress(f),236315.5,236314.5,235351.4,235351.7,235134.683,236117.728,
canvas.Screen,13_1_4,2023-01-14T03:40:24.723Z,,,b,,,180,333.792,timeout,e.jpg,,,236671.5,236671.1,236101.349,236324,236117.728,236451.52,
flow.Sequence,13_1,2023-01-14T03:40:24.724Z,,,b,,,180,2886.08,completion,e.jpg,,,236671.8,236671.1,233983.3,233984.1,233785.02,236451.52,
canvas.Screen,13_2_0,2023-01-14T03:40:24.980Z,,,b,,,0,258.958,timeout,e.jpg,,,236928.2,236927.9,236671.1,236672,236451.52,236710.478,
canvas.Screen,13_2_1,2023-01-14T03:40:25.739Z,,,b,,,0,757.53,timeout,e.jpg,,,237687.3,237687,236927.9,236928.5,236710.478,237468.008,
canvas.Screen,13_2_2,2023-01-14T03:40:25.996Z,,,b,,,0,250.979,timeout,e.jpg,,,237944.8,237944.4,237687,237687.6,237468.008,237718.987,
canvas.Screen,13_2_3,2023-01-14T03:40:26.689Z,,,b,TRUE,b,0,917.013,response,e.jpg,b,keypress(f),238636.9,238636,237944.4,237945,237718.987,238434.294,
canvas.Screen,13_2_4,2023-01-14T03:40:27.044Z,,,b,,,0,334.879,timeout,e.jpg,,,238992.4,238992,238417.629,238640.2,238434.294,238769.173,
flow.Sequence,13_2,2023-01-14T03:40:27.044Z,,,b,,,0,2540.48,completion,e.jpg,,,238992.7,238992,236671.1,236672,236451.52,238769.173,
canvas.Screen,13_3_0,2023-01-14T03:40:27.372Z,,,b,,,315,332.815,timeout,e.jpg,,,239320.2,239320,238992,238993,238769.173,239101.988,
canvas.Screen,13_3_1,2023-01-14T03:40:28.139Z,,,b,,,315,765.628,timeout,e.jpg,,,240087.2,240086.9,239320,239320.4,239101.988,239867.616,
canvas.Screen,13_3_2,2023-01-14T03:40:28.395Z,,,b,,,315,249.942,timeout,e.jpg,,,240343.4,240343.2,240086.9,240087.4,239867.616,240117.558,
canvas.Screen,13_3_3,2023-01-14T03:40:30.105Z,,,b,TRUE,b,315,1935.342,response,e.jpg,b,keypress(f),242053.5,242052.9,240343.2,240343.6,240117.558,241850.264,
canvas.Screen,13_3_4,2023-01-14T03:40:30.379Z,,,b,,,315,250.4,timeout,e.jpg,,,242327.5,242327.1,241827.746,242059,241850.264,242100.664,
flow.Sequence,13_3,2023-01-14T03:40:30.380Z,,,b,,,315,3557.927,completion,e.jpg,,,242327.8,242327.1,238992,238992.8,238769.173,242100.664,
canvas.Screen,13_4_0,2023-01-14T03:40:30.708Z,,,d,,,315,333.177,timeout,eR.jpg,,,242656.6,242656.3,242327.1,242328,242100.664,242433.841,
canvas.Screen,13_4_1,2023-01-14T03:40:31.468Z,,,d,,,315,766.667,timeout,eR.jpg,,,243416.6,243416.3,242656.3,242656.8,242433.841,243200.508,
canvas.Screen,13_4_2,2023-01-14T03:40:31.803Z,,,d,,,315,333.129,timeout,eR.jpg,,,243751.6,243751.3,243416.3,243416.8,243200.508,243533.637,
canvas.Screen,13_4_3,2023-01-14T03:40:32.751Z,,,d,TRUE,d,315,1164.363,response,eR.jpg,d,keypress(j),244699.1,244698,243751.3,243751.9,243533.637,244500.347,
canvas.Screen,13_4_4,2023-01-14T03:40:33.028Z,,,d,,,315,250.423,timeout,eR.jpg,,,244975.7,244975.4,244468.263,244701,244500.347,244750.77,
flow.Sequence,13_4,2023-01-14T03:40:33.028Z,,,d,,,315,2874.736,completion,eR.jpg,,,244976.1,244975.4,242327.1,242327.9,242100.664,244750.77,
canvas.Screen,13_5_0,2023-01-14T03:40:33.285Z,,,d,,,45,258.635,timeout,eR.jpg,,,245233.6,245233.3,244975.4,244976.2,244750.77,245009.405,
canvas.Screen,13_5_1,2023-01-14T03:40:34.044Z,,,d,,,45,757.521,timeout,eR.jpg,,,245992.1,245991.9,245233.3,245233.8,245009.405,245766.926,
canvas.Screen,13_5_2,2023-01-14T03:40:34.372Z,,,d,,,45,333.943,timeout,eR.jpg,,,246319.9,246319.5,245991.9,245992.4,245766.926,246100.869,
canvas.Screen,13_5_3,2023-01-14T03:40:35.441Z,,,d,TRUE,d,45,1287.731,response,eR.jpg,d,keypress(j),247389.7,247388.6,246319.5,246320.1,246100.869,247183.019,
canvas.Screen,13_5_4,2023-01-14T03:40:35.788Z,,,d,,,45,334.912,timeout,eR.jpg,,,247736.5,247736.1,247166.203,247391.4,247183.019,247517.931,
flow.Sequence,13_5,2023-01-14T03:40:35.789Z,,,d,,,45,2985.33,completion,eR.jpg,,,247736.8,247736.1,244975.4,244976.2,244750.77,247517.931,
canvas.Screen,13_6_0,2023-01-14T03:40:36.052Z,,,b,,,270,251.26,timeout,e.jpg,,,247999.9,247999.5,247736.1,247736.9,247517.931,247769.191,
canvas.Screen,13_6_1,2023-01-14T03:40:36.804Z,,,b,,,270,763.978,timeout,e.jpg,,,248751.9,248751.6,247999.5,248000.2,247769.191,248533.169,
canvas.Screen,13_6_2,2023-01-14T03:40:37.139Z,,,b,,,270,333.095,timeout,e.jpg,,,249087.6,249087.2,248751.6,248752.2,248533.169,248866.264,
canvas.Screen,13_6_3,2023-01-14T03:40:38.807Z,,,b,TRUE,b,270,1887.236,response,e.jpg,b,keypress(f),250754.7,250753.5,249087.2,249087.7,248866.264,250565.819,
canvas.Screen,13_6_4,2023-01-14T03:40:39.099Z,,,b,,,270,250.105,timeout,e.jpg,,,251047.6,251047.3,250541.241,250766.1,250565.819,250815.924,
flow.Sequence,13_6,2023-01-14T03:40:39.100Z,,,b,,,270,3529.369,completion,e.jpg,,,251047.9,251047.3,247736.1,247736.9,247517.931,250815.924,
canvas.Screen,13_7_0,2023-01-14T03:40:39.420Z,,,d,,,180,333.458,timeout,eR.jpg,,,251368,251367.7,251047.3,251048.1,250815.924,251149.382,
canvas.Screen,13_7_1,2023-01-14T03:40:40.188Z,,,d,,,180,766.416,timeout,eR.jpg,,,252136.4,252136.1,251367.7,251368.2,251149.382,251915.798,
canvas.Screen,13_7_2,2023-01-14T03:40:40.455Z,,,d,,,180,266.742,timeout,eR.jpg,,,252403,252402.8,252136.1,252136.5,251915.798,252182.54,
canvas.Screen,13_7_3,2023-01-14T03:40:42.047Z,,,d,TRUE,d,180,1811.36,response,eR.jpg,d,keypress(j),253995,253993.9,252402.8,252403.3,252182.54,253799.007,
canvas.Screen,13_7_4,2023-01-14T03:40:42.411Z,,,d,,,180,337.088,timeout,eR.jpg,,,254359.5,254359.2,253784.869,254002,253799.007,254136.095,
flow.Sequence,13_7,2023-01-14T03:40:42.412Z,,,d,,,180,3543.276,completion,eR.jpg,,,254359.9,254359.2,251047.3,251048,250815.924,254136.095,
canvas.Screen,13_8_0,2023-01-14T03:40:42.668Z,,,d,,,270,263.211,timeout,eR.jpg,,,254616.5,254616.1,254359.2,254360,254136.095,254399.306,
canvas.Screen,13_8_1,2023-01-14T03:40:43.435Z,,,d,,,270,767.533,timeout,eR.jpg,,,255383.5,255383.1,254616.1,254616.7,254399.306,255166.839,
canvas.Screen,13_8_2,2023-01-14T03:40:43.702Z,,,d,,,270,265.196,timeout,eR.jpg,,,255650,255649.7,255383.1,255383.8,255166.839,255432.035,
canvas.Screen,13_8_3,2023-01-14T03:40:45.528Z,,,d,TRUE,d,270,2042.965,response,eR.jpg,d,keypress(j),257476.1,257475,255649.7,255650.3,255432.035,257264.869,
canvas.Screen,13_8_4,2023-01-14T03:40:45.795Z,,,d,,,270,250.522,timeout,eR.jpg,,,257743.5,257743.1,257248.942,257478,257264.869,257515.391,
flow.Sequence,13_8,2023-01-14T03:40:45.795Z,,,d,,,270,3607.005,completion,eR.jpg,,,257743.8,257743.1,254359.2,254360,254136.095,257515.391,
canvas.Screen,13_9_0,2023-01-14T03:40:46.044Z,,,d,,,90,249.704,timeout,eR.jpg,,,257992.1,257991.8,257743.1,257743.9,257515.391,257765.095,
canvas.Screen,13_9_1,2023-01-14T03:40:46.796Z,,,d,,,90,762.445,timeout,eR.jpg,,,258744,258743.7,257991.8,257992.3,257765.095,258527.54,
canvas.Screen,13_9_2,2023-01-14T03:40:47.059Z,,,d,,,90,254.001,timeout,eR.jpg,,,259007.5,259007.2,258743.7,258744.2,258527.54,258781.541,
canvas.Screen,13_9_3,2023-01-14T03:40:48.989Z,,,d,TRUE,d,90,2154.459,response,eR.jpg,d,keypress(j),260937.2,260936,259007.2,259007.7,258781.541,260731.118,
canvas.Screen,13_9_4,2023-01-14T03:40:49.331Z,,,d,,,90,316.904,timeout,eR.jpg,,,261279.6,261279.2,260714.36,260946.3,260731.118,261048.022,
flow.Sequence,13_9,2023-01-14T03:40:49.332Z,,,d,,,90,3763.809,completion,eR.jpg,,,261280,261279.2,257743.1,257743.9,257515.391,261048.022,
canvas.Screen,13_10_0,2023-01-14T03:40:49.651Z,,,b,,,135,333.302,timeout,e.jpg,,,261599.7,261599.4,261279.2,261280.1,261048.022,261381.324,
canvas.Screen,13_10_1,2023-01-14T03:40:50.412Z,,,b,,,135,750.096,timeout,e.jpg,,,262360,262359.7,261599.4,261599.9,261381.324,262131.42,
canvas.Screen,13_10_2,2023-01-14T03:40:50.661Z,,,b,,,135,250.215,timeout,e.jpg,,,262608.9,262608.6,262359.7,262360.2,262131.42,262381.635,
canvas.Screen,13_10_3,2023-01-14T03:40:52.508Z,,,b,TRUE,b,135,2073.465,response,e.jpg,b,keypress(f),264456.2,264455.1,262608.6,262609.1,262381.635,264264.021,
canvas.Screen,13_10_4,2023-01-14T03:40:52.795Z,,,b,,,135,251.523,timeout,e.jpg,,,264743.3,264743.1,264247.69,264467.9,264264.021,264515.544,
flow.Sequence,13_10,2023-01-14T03:40:52.796Z,,,b,,,135,3695.078,completion,e.jpg,,,264744.3,264743.1,261279.2,261280.1,261048.022,264515.544,
canvas.Screen,13_11_0,2023-01-14T03:40:53.056Z,,,b,,,45,265.27,timeout,e.jpg,,,265004.5,265004.2,264743.1,264744.7,264515.544,264780.814,
canvas.Screen,13_11_1,2023-01-14T03:40:53.812Z,,,b,,,45,753.268,timeout,e.jpg,,,265760.1,265759.9,265004.2,265004.8,264780.814,265534.082,
canvas.Screen,13_11_2,2023-01-14T03:40:54.068Z,,,b,,,45,249.495,timeout,e.jpg,,,266016.1,266015.8,265759.9,265760.3,265534.082,265783.577,
canvas.Screen,13_11_3,2023-01-14T03:40:55.374Z,,,b,TRUE,b,45,1538.023,response,e.jpg,b,keypress(f),267322.3,267321.6,266015.8,266016.4,265783.577,267113.597,
canvas.Screen,13_11_4,2023-01-14T03:40:55.644Z,,,b,,,45,250.2,timeout,e.jpg,,,267592.1,267591.7,267098.902,267323,267113.597,267363.797,
flow.Sequence,13_11,2023-01-14T03:40:55.644Z,,,b,,,45,3076.156,completion,e.jpg,,,267592.3,267591.7,264743.1,264744.6,264515.544,267363.797,
canvas.Screen,13_12_0,2023-01-14T03:40:55.892Z,,,b,,,90,244.139,timeout,e.jpg,,,267840.7,267840.4,267591.7,267592.4,267363.797,267607.936,
canvas.Screen,13_12_1,2023-01-14T03:40:56.636Z,,,b,,,90,755.926,timeout,e.jpg,,,268583.9,268583.6,267840.4,267840.8,267607.936,268363.862,
canvas.Screen,13_12_2,2023-01-14T03:40:56.892Z,,,b,,,90,249.854,timeout,e.jpg,,,268840,268839.6,268583.6,268584.1,268363.862,268613.716,
canvas.Screen,13_12_3,2023-01-14T03:40:58.478Z,,,b,TRUE,b,90,1811.884,response,e.jpg,b,keypress(f),270426.4,270425.6,268839.6,268840.3,268613.716,270230.461,
canvas.Screen,13_12_4,2023-01-14T03:40:58.772Z,,,b,,,90,266.225,timeout,e.jpg,,,270720.2,270719.8,270213.136,270433.4,270230.461,270496.686,
flow.Sequence,13_12,2023-01-14T03:40:58.772Z,,,b,,,90,3356.003,completion,e.jpg,,,270720.5,270719.8,267591.7,267592.4,267363.797,270496.686,
canvas.Screen,13_13_0,2023-01-14T03:40:59.100Z,,,d,,,0,333.675,timeout,eR.jpg,,,271048.4,271048,270719.8,270720.6,270496.686,270830.361,
canvas.Screen,13_13_1,2023-01-14T03:40:59.859Z,,,d,,,0,749.862,timeout,eR.jpg,,,271807.3,271807,271048,271048.7,270830.361,271580.223,
canvas.Screen,13_13_2,2023-01-14T03:41:00.107Z,,,d,,,0,258.813,timeout,eR.jpg,,,272055.6,272055.3,271807,271807.5,271580.223,271839.036,
canvas.Screen,13_13_3,2023-01-14T03:41:00.985Z,,,d,TRUE,d,0,1093.264,response,eR.jpg,d,keypress(j),272932.8,272932.3,272055.3,272055.8,271839.036,272729.711,
canvas.Screen,13_13_4,2023-01-14T03:41:01.331Z,,,d,,,0,317.414,timeout,eR.jpg,,,273279.4,273279,272714.942,272933.5,272729.711,273047.125,
flow.Sequence,13_13,2023-01-14T03:41:01.331Z,,,d,,,0,2782.314,completion,eR.jpg,,,273279.7,273279,270719.8,270720.5,270496.686,273047.125,
canvas.Screen,13_14_0,2023-01-14T03:41:01.652Z,,,d,,,135,332.576,timeout,eR.jpg,,,273600.5,273600.2,273279,273279.9,273047.125,273379.701,
canvas.Screen,13_14_1,2023-01-14T03:41:02.421Z,,,d,,,135,766.381,timeout,eR.jpg,,,274368.9,274368.5,273600.2,273600.7,273379.701,274146.082,
canvas.Screen,13_14_2,2023-01-14T03:41:02.675Z,,,d,,,135,244.473,timeout,eR.jpg,,,274623.7,274623.2,274368.5,274369,274146.082,274390.555,
canvas.Screen,13_14_3,2023-01-14T03:41:04.611Z,,,d,TRUE,d,135,2167.345,response,eR.jpg,d,keypress(j),276559,276557.9,274623.2,274623.9,274390.555,276362.481,
canvas.Screen,13_14_4,2023-01-14T03:41:04.964Z,,,d,,,135,333.308,timeout,eR.jpg,,,276912,276911.7,276345.556,276566.5,276362.481,276695.789,
flow.Sequence,13_14,2023-01-14T03:41:04.964Z,,,d,,,135,3864.575,completion,eR.jpg,,,276912.4,276911.7,273279,273279.8,273047.125,276695.789,
canvas.Screen,13_15_0,2023-01-14T03:41:05.300Z,,,b,,,225,333.476,timeout,e.jpg,,,277248.1,277247.8,276911.7,276912.5,276695.789,277029.265,
canvas.Screen,13_15_1,2023-01-14T03:41:06.068Z,,,b,,,225,767.017,timeout,e.jpg,,,278016.5,278016.2,277247.8,277248.2,277029.265,277796.282,
canvas.Screen,13_15_2,2023-01-14T03:41:06.323Z,,,b,,,225,258.732,timeout,e.jpg,,,278271.6,278271.3,278016.2,278016.6,277796.282,278055.014,
canvas.Screen,13_15_3,2023-01-14T03:41:07.911Z,,,b,TRUE,b,225,1803.286,response,e.jpg,b,keypress(f),279859.5,279858.3,278271.3,278271.8,278055.014,279661.985,
canvas.Screen,13_15_4,2023-01-14T03:41:08.189Z,,,b,,,225,250.196,timeout,e.jpg,,,280137.5,280137.3,279632.481,279861.4,279661.985,279912.181,
flow.Sequence,13_15,2023-01-14T03:41:08.190Z,,,b,,,225,3441.511,completion,e.jpg,,,280137.9,280137.3,276911.7,276912.4,276695.789,279912.181,
flow.Loop,13,2023-01-14T03:41:08.190Z,,,,,,,49451.954,completion,,,,280138.1,280137.3,230902.9,230903.9,230685.346,279912.181,
canvas.Screen,14,2023-01-14T03:42:07.956Z,,,,,,,59775.36,timeout,,,,339904.1,339903.8,280137.3,280138.2,279912.181,339687.541,
15,2023-01-14T03:42:12.321Z,,,,,,,4581.759,form submission,,,,344269.4,344269.3,339903.8,339904.4,339687.541,344053.434,,
html.Page,16,2023-01-14T03:42:14.867Z,,,,,,,2761.966,form submission,,,,346815.5,346815.4,344037.285,344269.5,344053.434,346603.129,
html.Page,17,2023-01-14T03:42:17.781Z,,,,,,,3125.471,form submission,,,,349728.6,349728.6,346587.038,346815.7,346603.129,349519.489,
html.Page,18,2023-01-14T03:42:20.605Z,,,,,,,3033.311,form submission,,,,352552.9,352552.8,349502.904,349728.8,349519.489,352352.424,
html.Page,19,2023-01-14T03:42:23.170Z,,,,,,,2765.576,form submission,,,,355118.2,355118,352320.053,352553,352352.424,354920.999,
canvas.Screen,20,2023-01-14T03:42:24.028Z,,,,,,,831.272,timeout,,,,355975.9,355975.7,354886.232,355118.3,354920.999,355752.271,
canvas.Screen,21_0_0,2023-01-14T03:42:24.356Z,,,b,,,180,333.239,timeout,2.jpg,,,356303.7,356303.3,355975.7,355976.2,355752.271,356085.51,
canvas.Screen,21_0_1,2023-01-14T03:42:25.116Z,,,b,,,180,761.581,timeout,2.jpg,,,357064.2,357063.9,356303.3,356303.9,356085.51,356847.091,
canvas.Screen,21_0_2,2023-01-14T03:42:25.451Z,,,b,,,180,321.594,timeout,2.jpg,,,357399.2,357398.9,357063.9,357064.4,356847.091,357168.685,
canvas.Screen,21_0_3,2023-01-14T03:42:27.415Z,,,b,FALSE,b,180,2193.815,response,2.jpg,d,keypress(j),359362.9,359362.5,357398.9,357399.4,357168.685,359151.415,
canvas.Screen,21_0_4,2023-01-14T03:42:27.758Z,,,b,,,180,333.601,timeout,2.jpg,,,359705.8,359705.5,359134.67,359375.8,359151.415,359485.016,
flow.Sequence,21_0,2023-01-14T03:42:27.758Z,,,b,,,180,3953.229,completion,2.jpg,,,359706.2,359705.5,355975.7,355976.1,355752.271,359485.016,
canvas.Screen,21_1_0,2023-01-14T03:42:28.012Z,,,d,,,90,249.938,timeout,2R.jpg,,,359960.5,359960.2,359705.5,359706.4,359485.016,359734.954,
canvas.Screen,21_1_1,2023-01-14T03:42:28.764Z,,,d,,,90,750.098,timeout,2R.jpg,,,360711.9,360711.6,359960.2,359960.6,359734.954,360485.052,
canvas.Screen,21_1_2,2023-01-14T03:42:29.092Z,,,d,,,90,333.258,timeout,2R.jpg,,,361040.3,361040,360711.6,360712.1,360485.052,360818.31,
canvas.Screen,21_1_3,2023-01-14T03:42:30.067Z,,,d,TRUE,d,90,1195.49,response,2R.jpg,d,keypress(j),362014.7,362013.8,361040,361040.5,360818.31,361801.249,
canvas.Screen,21_1_4,2023-01-14T03:42:30.412Z,,,d,,,90,337.379,timeout,2R.jpg,,,362360.3,362359.9,361787.85,362016.3,361801.249,362138.628,
flow.Sequence,21_1,2023-01-14T03:42:30.412Z,,,d,,,90,2874.884,completion,2R.jpg,,,362360.6,362359.9,359705.5,359706.3,359485.016,362138.628,
canvas.Screen,21_2_0,2023-01-14T03:42:30.667Z,,,b,,,45,246.333,timeout,2.jpg,,,362615.6,362615.2,362359.9,362360.8,362138.628,362384.961,
canvas.Screen,21_2_1,2023-01-14T03:42:31.419Z,,,b,,,45,750.597,timeout,2.jpg,,,363367.4,363367,362615.2,362615.8,362384.961,363135.558,
canvas.Screen,21_2_2,2023-01-14T03:42:31.739Z,,,b,,,45,332.262,timeout,2.jpg,,,363687.3,363687,363367,363367.6,363135.558,363467.82,
canvas.Screen,21_2_3,2023-01-14T03:42:32.458Z,,,b,TRUE,b,45,937.68,response,2.jpg,b,keypress(f),364406.4,364405.5,363687,363687.5,363467.82,364200.795,
canvas.Screen,21_2_4,2023-01-14T03:42:32.805Z,,,b,,,45,334.601,timeout,2.jpg,,,364752.9,364752.5,364185.912,364407.3,364200.795,364535.396,
flow.Sequence,21_2,2023-01-14T03:42:32.805Z,,,b,,,45,2613.872,completion,2.jpg,,,364753.2,364752.5,362359.9,362360.7,362138.628,364535.396,
canvas.Screen,21_3_0,2023-01-14T03:42:33.140Z,,,d,,,225,332.208,timeout,2R.jpg,,,365088.4,365088,364752.5,364753.4,364535.396,364867.604,
canvas.Screen,21_3_1,2023-01-14T03:42:33.900Z,,,d,,,225,749.618,timeout,2R.jpg,,,365848,365847.8,365088,365088.6,364867.604,365617.222,
canvas.Screen,21_3_2,2023-01-14T03:42:34.148Z,,,d,,,225,261.795,timeout,2R.jpg,,,366095.8,366095.4,365847.8,365848.1,365617.222,365879.017,
canvas.Screen,21_3_3,2023-01-14T03:42:35.381Z,,,d,TRUE,d,225,1448.883,response,2R.jpg,d,keypress(j),367328.9,367327.9,366095.4,366096,365879.017,367117.274,
canvas.Screen,21_3_4,2023-01-14T03:42:35.652Z,,,d,,,225,266.621,timeout,2R.jpg,,,367600,367599.6,367100.116,367330.9,367117.274,367383.895,
flow.Sequence,21_3,2023-01-14T03:42:35.652Z,,,d,,,225,3064.204,completion,2R.jpg,,,367600.2,367599.6,364752.5,364753.4,364535.396,367383.895,
flow.Loop,21,2023-01-14T03:42:35.652Z,,,,,,,11847.329,completion,,,,367600.4,367599.6,355975.7,355976.1,355752.271,367383.895,
html.Page,22,2023-01-14T03:42:36.997Z,,,,,,,1561.205,form submission,,,,368945.3,368945.1,367599.6,367600.5,367383.895,368733.51,
canvas.Screen,23,2023-01-14T03:42:37.764Z,,,,,,,750.173,timeout,,,,369711.7,369711.5,368717.017,368945.4,368733.51,369483.683,
canvas.Screen,24_0_0,2023-01-14T03:42:38.012Z,,,d,,,180,249.97,timeout,2R.jpg,,,369960.2,369959.9,369711.5,369711.9,369483.683,369733.653,
canvas.Screen,24_0_1,2023-01-14T03:42:38.772Z,,,d,,,180,766.723,timeout,2R.jpg,,,370719.9,370719.6,369959.9,369960.4,369733.653,370500.376,
canvas.Screen,24_0_2,2023-01-14T03:42:39.029Z,,,d,,,180,250.111,timeout,2R.jpg,,,370976.9,370976.4,370719.6,370720.1,370500.376,370750.487,
canvas.Screen,24_0_3,2023-01-14T03:42:40.276Z,,,d,TRUE,d,180,1472.813,response,2R.jpg,d,keypress(j),372224.4,372223.3,370976.4,370977.1,370750.487,372016.502,
canvas.Screen,24_0_4,2023-01-14T03:42:40.548Z,,,d,,,180,250.401,timeout,2R.jpg,,,372496.1,372495.8,372004.958,372230.5,372016.502,372266.903,
flow.Sequence,24_0,2023-01-14T03:42:40.548Z,,,d,,,180,3012.117,completion,2R.jpg,,,372496.4,372495.8,369711.5,369711.9,369483.683,372266.903,
canvas.Screen,24_1_0,2023-01-14T03:42:40.795Z,,,b,,,180,250.903,timeout,2.jpg,,,372743.4,372743.1,372495.8,372496.6,372266.903,372517.806,
canvas.Screen,24_1_1,2023-01-14T03:42:41.548Z,,,b,,,180,748.784,timeout,2.jpg,,,373496,373495.8,372743.1,372743.5,372517.806,373266.59,
canvas.Screen,24_1_2,2023-01-14T03:42:41.796Z,,,b,,,180,252.973,timeout,2.jpg,,,373744,373743.7,373495.8,373496.2,373266.59,373519.563,
canvas.Screen,24_1_3,2023-01-14T03:42:43.125Z,,,b,TRUE,b,180,1553.037,response,2.jpg,b,keypress(f),375072.9,375072.6,373743.7,373744.3,373519.563,374866.108,
canvas.Screen,24_1_4,2023-01-14T03:42:43.396Z,,,b,,,180,250.308,timeout,2.jpg,,,375344.2,375343.9,374842.698,375073.8,374866.108,375116.416,
flow.Sequence,24_1,2023-01-14T03:42:43.396Z,,,b,,,180,3076.997,completion,2.jpg,,,375344.5,375343.9,372495.8,372496.5,372266.903,375116.416,
canvas.Screen,24_2_0,2023-01-14T03:42:43.652Z,,,b,,,90,266.793,timeout,2.jpg,,,375600.3,375600,375343.9,375344.7,375116.416,375383.209,
canvas.Screen,24_2_1,2023-01-14T03:42:44.420Z,,,b,,,90,759.525,timeout,2.jpg,,,376367.8,376367.5,375600,375600.6,375383.209,376142.734,
canvas.Screen,24_2_2,2023-01-14T03:42:44.676Z,,,b,,,90,256.67,timeout,2.jpg,,,376624.1,376623.7,376367.5,376368.1,376142.734,376399.404,
canvas.Screen,24_2_3,2023-01-14T03:42:46.421Z,,,b,TRUE,b,90,1968.896,response,2.jpg,b,keypress(f),378369.2,378368.3,376623.7,376624.3,376399.404,378165.629,
canvas.Screen,24_2_4,2023-01-14T03:42:46.699Z,,,b,,,90,250.105,timeout,2.jpg,,,378647.7,378647.3,378149.688,378377.2,378165.629,378415.734,
flow.Sequence,24_2,2023-01-14T03:42:46.700Z,,,b,,,90,3530.884,completion,2.jpg,,,378647.9,378647.3,375343.9,375344.6,375116.416,378415.734,
canvas.Screen,24_3_0,2023-01-14T03:42:47.019Z,,,b,,,135,333.32,timeout,2.jpg,,,378967.5,378967.2,378647.3,378648.1,378415.734,378749.054,
canvas.Screen,24_3_1,2023-01-14T03:42:47.780Z,,,b,,,135,749.964,timeout,2.jpg,,,379728.6,379728.3,378967.2,378967.6,378749.054,379499.018,
canvas.Screen,24_3_2,2023-01-14T03:42:48.029Z,,,b,,,135,250.358,timeout,2.jpg,,,379977,379976.6,379728.3,379728.7,379499.018,379749.376,
canvas.Screen,24_3_3,2023-01-14T03:42:49.247Z,,,b,TRUE,b,135,1444.824,response,2.jpg,b,keypress(f),381195.1,381194.2,379976.6,379977.2,379749.376,381000.791,
canvas.Screen,24_3_4,2023-01-14T03:42:49.532Z,,,b,,,135,248.344,timeout,2.jpg,,,381480.3,381480,380967.811,381197.4,381000.791,381249.135,
flow.Sequence,24_3,2023-01-14T03:42:49.532Z,,,b,,,135,3064.266,completion,2.jpg,,,381480.6,381480,378647.3,378648,378415.734,381249.135,
canvas.Screen,24_4_0,2023-01-14T03:42:49.852Z,,,d,,,90,333.329,timeout,2R.jpg,,,381799.8,381799.6,381480,381480.8,381249.135,381582.464,
canvas.Screen,24_4_1,2023-01-14T03:42:50.620Z,,,d,,,90,765.999,timeout,2R.jpg,,,382567.9,382567.7,381799.6,381799.9,381582.464,382348.463,
canvas.Screen,24_4_2,2023-01-14T03:42:50.877Z,,,d,,,90,253.802,timeout,2R.jpg,,,382824.8,382824.6,382567.7,382568.2,382348.463,382602.265,
canvas.Screen,24_4_3,2023-01-14T03:42:52.101Z,,,d,TRUE,d,90,1446.735,response,2R.jpg,d,keypress(j),384049.4,384049,382824.6,382825,382602.265,383848.184,
canvas.Screen,24_4_4,2023-01-14T03:42:52.380Z,,,d,,,90,250.414,timeout,2R.jpg,,,384327.9,384327.5,383822.682,384054.7,383848.184,384098.598,
flow.Sequence,24_4,2023-01-14T03:42:52.380Z,,,d,,,90,3078.365,completion,2R.jpg,,,384328.1,384327.5,381480,381480.7,381249.135,384098.598,
canvas.Screen,24_5_0,2023-01-14T03:42:52.700Z,,,d,,,135,333.134,timeout,2R.jpg,,,384648.5,384648.1,384327.5,384328.2,384098.598,384431.732,
canvas.Screen,24_5_1,2023-01-14T03:42:53.460Z,,,d,,,135,743.244,timeout,2R.jpg,,,385408.3,385407.8,384648.1,384648.7,384431.732,385174.976,
canvas.Screen,24_5_2,2023-01-14T03:42:53.707Z,,,d,,,135,256.54,timeout,2R.jpg,,,385655.2,385655,385407.8,385408.5,385174.976,385431.516,
canvas.Screen,24_5_3,2023-01-14T03:42:55.260Z,,,d,TRUE,d,135,1775.484,response,2R.jpg,d,keypress(j),387207.9,387207,385655,385655.2,385431.516,386997.733,
canvas.Screen,24_5_4,2023-01-14T03:42:55.604Z,,,d,,,135,333.561,timeout,2R.jpg,,,387552.1,387551.8,386980.948,387209.8,386997.733,387331.294,
flow.Sequence,24_5,2023-01-14T03:42:55.604Z,,,d,,,135,3453.202,completion,2R.jpg,,,387552.4,387551.8,384327.5,384328.2,384098.598,387331.294,
canvas.Screen,24_6_0,2023-01-14T03:42:55.932Z,,,b,,,315,316.557,timeout,2.jpg,,,387879.9,387879.7,387551.8,387552.5,387331.294,387647.851,
canvas.Screen,24_6_1,2023-01-14T03:42:56.676Z,,,b,,,315,749.98,timeout,2.jpg,,,388624,388623.7,387879.7,387880.3,387647.851,388397.831,
canvas.Screen,24_6_2,2023-01-14T03:42:57.004Z,,,b,,,315,333.409,timeout,2.jpg,,,388951.9,388951.6,388623.7,388624.1,388397.831,388731.24,
canvas.Screen,24_6_3,2023-01-14T03:42:58.671Z,,,b,TRUE,b,315,1887.06,response,2.jpg,b,keypress(f),390619.2,390618.3,388951.6,388952.1,388731.24,390430.728,
canvas.Screen,24_6_4,2023-01-14T03:42:58.964Z,,,b,,,315,259.384,timeout,2.jpg,,,390912,390911.8,390403.064,390631.2,390430.728,390690.112,
flow.Sequence,24_6,2023-01-14T03:42:58.964Z,,,b,,,315,3580.506,completion,2.jpg,,,390912.4,390911.8,387551.8,387552.5,387331.294,390690.112,
canvas.Screen,24_7_0,2023-01-14T03:42:59.221Z,,,b,,,270,257.629,timeout,2.jpg,,,391169.2,391168.8,390911.8,390912.6,390690.112,390947.741,
canvas.Screen,24_7_1,2023-01-14T03:42:59.980Z,,,b,,,270,751.063,timeout,2.jpg,,,391927.9,391927.6,391168.8,391169.4,390947.741,391698.804,
canvas.Screen,24_7_2,2023-01-14T03:43:00.300Z,,,b,,,270,331.854,timeout,2.jpg,,,392247.7,392247.5,391927.6,391928.1,391698.804,392030.658,
canvas.Screen,24_7_3,2023-01-14T03:43:02.033Z,,,b,TRUE,b,270,1950.242,response,2.jpg,b,keypress(f),393981.5,393980.9,392247.5,392248,392030.658,393780.16,
canvas.Screen,24_7_4,2023-01-14T03:43:02.308Z,,,b,,,270,250.518,timeout,2.jpg,,,394255.8,394255.4,393758.749,393987,393780.16,394030.678,
flow.Sequence,24_7,2023-01-14T03:43:02.308Z,,,b,,,270,3565.288,completion,2.jpg,,,394256,394255.4,390911.8,390912.5,390690.112,394030.678,
canvas.Screen,24_8_0,2023-01-14T03:43:02.636Z,,,d,,,45,332.992,timeout,2R.jpg,,,394583.7,394583.5,394255.4,394256.2,394030.678,394363.67,
canvas.Screen,24_8_1,2023-01-14T03:43:03.476Z,,,d,,,45,838.217,timeout,2R.jpg,,,395423.7,395423.4,394583.5,394584,394363.67,395201.887,
canvas.Screen,24_8_2,2023-01-14T03:43:03.732Z,,,d,,,45,261.604,timeout,2R.jpg,,,395679.9,395679.5,395423.4,395423.9,395201.887,395463.491,
canvas.Screen,24_8_3,2023-01-14T03:43:04.755Z,,,d,TRUE,d,45,1238.809,response,2R.jpg,d,keypress(j),396703.2,396702.3,395679.5,395680.2,395463.491,396496.537,
canvas.Screen,24_8_4,2023-01-14T03:43:05.100Z,,,d,,,45,333.427,timeout,2R.jpg,,,397048.5,397048.1,396480.013,396703.9,396496.537,396829.964,
flow.Sequence,24_8,2023-01-14T03:43:05.101Z,,,d,,,45,3017.422,completion,2R.jpg,,,397048.8,397048.1,394255.4,394256.1,394030.678,396829.964,
canvas.Screen,24_9_0,2023-01-14T03:43:05.364Z,,,d,,,315,250.072,timeout,2R.jpg,,,397312.3,397311.9,397048.1,397048.9,396829.964,397080.036,
canvas.Screen,24_9_1,2023-01-14T03:43:06.108Z,,,d,,,315,749.797,timeout,2R.jpg,,,398055.8,398055.4,397311.9,397312.5,397080.036,397829.833,
canvas.Screen,24_9_2,2023-01-14T03:43:06.435Z,,,d,,,315,333.333,timeout,2R.jpg,,,398383.7,398383.3,398055.4,398056,397829.833,398163.166,
canvas.Screen,24_9_3,2023-01-14T03:43:07.759Z,,,d,TRUE,d,315,1542.834,response,2R.jpg,d,keypress(j),399706.9,399706,398383.3,398383.9,398163.166,399512.931,
canvas.Screen,24_9_4,2023-01-14T03:43:08.049Z,,,d,,,315,261.052,timeout,2R.jpg,,,399996.8,399996.4,399484.047,399714.4,399512.931,399773.983,
flow.Sequence,24_9,2023-01-14T03:43:08.050Z,,,d,,,315,3166.436,completion,2R.jpg,,,399997.3,399996.4,397048.1,397048.9,396829.964,399773.983,
canvas.Screen,24_10_0,2023-01-14T03:43:08.380Z,,,b,,,225,322.297,timeout,2.jpg,,,400328,400327.7,399996.4,399997.5,399773.983,400096.28,
canvas.Screen,24_10_1,2023-01-14T03:43:09.124Z,,,b,,,225,751.087,timeout,2.jpg,,,401071.6,401071.3,400327.7,400328.2,400096.28,400847.367,
canvas.Screen,24_10_2,2023-01-14T03:43:09.381Z,,,b,,,225,282.363,timeout,2.jpg,,,401328.4,401328.1,401071.3,401071.7,400847.367,401129.73,
canvas.Screen,24_10_3,2023-01-14T03:43:11.794Z,,,b,FALSE,b,225,2611.17,response,2.jpg,d,keypress(j),403741.5,403740.9,401328.1,401328.7,401129.73,403545.655,
canvas.Screen,24_10_4,2023-01-14T03:43:12.148Z,,,b,,,225,334.724,timeout,2.jpg,,,404096.1,404095.8,403525.311,403746.9,403545.655,403880.379,
flow.Sequence,24_10,2023-01-14T03:43:12.149Z,,,b,,,225,4321.817,completion,2.jpg,,,404096.4,404095.8,399996.4,399997.4,399773.983,403880.379,
canvas.Screen,24_11_0,2023-01-14T03:43:12.485Z,,,d,,,270,332.012,timeout,2R.jpg,,,404432.7,404431.8,404095.8,404096.5,403880.379,404212.391,
canvas.Screen,24_11_1,2023-01-14T03:43:13.245Z,,,d,,,270,749.944,timeout,2R.jpg,,,405193,405192.6,404431.8,404433,404212.391,404962.335,
canvas.Screen,24_11_2,2023-01-14T03:43:13.493Z,,,d,,,270,261.538,timeout,2R.jpg,,,405440.4,405440.1,405192.6,405193.1,404962.335,405223.873,
canvas.Screen,24_11_3,2023-01-14T03:43:14.567Z,,,d,TRUE,d,270,1290.427,response,2R.jpg,d,keypress(j),406515.2,406514.3,405440.1,405440.5,405223.873,406311.904,
canvas.Screen,24_11_4,2023-01-14T03:43:14.916Z,,,d,,,270,333.461,timeout,2R.jpg,,,406864,406863.6,406295.076,406516,406311.904,406645.365,
flow.Sequence,24_11,2023-01-14T03:43:14.916Z,,,d,,,270,2983.221,completion,2R.jpg,,,406864.2,406863.6,404095.8,404096.5,403880.379,406645.365,
canvas.Screen,24_12_0,2023-01-14T03:43:15.180Z,,,b,,,0,266.687,timeout,2.jpg,,,407128,407127.7,406863.6,406864.3,406645.365,406912.052,
canvas.Screen,24_12_1,2023-01-14T03:43:15.941Z,,,b,,,0,749.985,timeout,2.jpg,,,407888.3,407888,407127.7,407128.2,406912.052,407662.037,
canvas.Screen,24_12_2,2023-01-14T03:43:16.268Z,,,b,,,0,333.243,timeout,2.jpg,,,408215.9,408215.5,407888,407888.5,407662.037,407995.28,
canvas.Screen,24_12_3,2023-01-14T03:43:17.091Z,,,b,TRUE,b,0,1042.42,response,2.jpg,b,keypress(f),409038.8,409037.7,408215.5,408216.1,407995.28,408828.175,
canvas.Screen,24_12_4,2023-01-14T03:43:17.357Z,,,b,,,0,250.727,timeout,2.jpg,,,409304.4,409304,408813.076,409041.4,408828.175,409078.902,
flow.Sequence,24_12,2023-01-14T03:43:17.357Z,,,b,,,0,2658.635,completion,2.jpg,,,409304.7,409304,406863.6,406864.3,406645.365,409078.902,
canvas.Screen,24_13_0,2023-01-14T03:43:17.692Z,,,d,,,0,336.708,timeout,2R.jpg,,,409640.2,409639.8,409304,409304.8,409078.902,409415.61,
canvas.Screen,24_13_1,2023-01-14T03:43:18.453Z,,,d,,,0,763.044,timeout,2R.jpg,,,410400.4,410400,409639.8,409640.4,409415.61,410178.654,
canvas.Screen,24_13_2,2023-01-14T03:43:18.781Z,,,d,,,0,333.431,timeout,2R.jpg,,,410728.7,410728.5,410400,410400.7,410178.654,410512.085,
canvas.Screen,24_13_3,2023-01-14T03:43:19.396Z,,,d,TRUE,d,0,830.815,response,2R.jpg,d,keypress(j),411343.6,411342.9,410728.5,410728.9,410512.085,411144.784,
canvas.Screen,24_13_4,2023-01-14T03:43:19.748Z,,,d,,,0,334.617,timeout,2R.jpg,,,411695.7,411695.4,411111.381,411344.5,411144.784,411479.401,
flow.Sequence,24_13,2023-01-14T03:43:19.748Z,,,d,,,0,2616.498,completion,2R.jpg,,,411696,411695.4,409304,409304.8,409078.902,411479.401,
canvas.Screen,24_14_0,2023-01-14T03:43:20.012Z,,,d,,,225,251.512,timeout,2R.jpg,,,411960.3,411960,411695.4,411696.1,411479.401,411730.913,
canvas.Screen,24_14_1,2023-01-14T03:43:20.764Z,,,d,,,225,763.924,timeout,2R.jpg,,,412711.9,412711.6,411960,411960.4,411730.913,412494.837,
canvas.Screen,24_14_2,2023-01-14T03:43:21.100Z,,,d,,,225,333.166,timeout,2R.jpg,,,413047.6,413047.4,412711.6,412712.1,412494.837,412828.003,
canvas.Screen,24_14_3,2023-01-14T03:43:22.627Z,,,d,TRUE,d,225,1746.297,response,2R.jpg,d,keypress(j),414575.2,414574.3,413047.4,413047.8,412828.003,414377.521,
canvas.Screen,24_14_4,2023-01-14T03:43:22.910Z,,,d,,,225,250.201,timeout,2R.jpg,,,414858.3,414857.9,414363.088,414583.8,414377.521,414627.722,
flow.Sequence,24_14,2023-01-14T03:43:22.911Z,,,d,,,225,3378.499,completion,2R.jpg,,,414858.5,414857.9,411695.4,411696.1,411479.401,414627.722,
canvas.Screen,24_15_0,2023-01-14T03:43:23.172Z,,,b,,,45,266.427,timeout,2.jpg,,,415119.8,415119.4,414857.9,414858.8,414627.722,414894.149,
canvas.Screen,24_15_1,2023-01-14T03:43:23.924Z,,,b,,,45,750.154,timeout,2.jpg,,,415872,415871.8,415119.4,415120,414894.149,415644.303,
canvas.Screen,24_15_2,2023-01-14T03:43:24.173Z,,,b,,,45,248.827,timeout,2.jpg,,,416121.1,416120.8,415871.8,415872.2,415644.303,415893.13,
canvas.Screen,24_15_3,2023-01-14T03:43:25.511Z,,,b,TRUE,b,45,1564.07,response,2.jpg,b,keypress(f),417458.5,417457.2,416120.8,416121.4,415893.13,417260.655,
canvas.Screen,24_15_4,2023-01-14T03:43:25.789Z,,,b,,,45,250.371,timeout,2.jpg,,,417737,417736.6,417229.317,417460.1,417260.655,417511.026,
flow.Sequence,24_15,2023-01-14T03:43:25.789Z,,,b,,,45,3108.878,completion,2.jpg,,,417737.2,417736.6,414857.9,414858.6,414627.722,417511.026,
flow.Loop,24,2023-01-14T03:43:25.790Z,,,,,,,48252.917,completion,,,,417737.4,417736.6,369711.5,369711.9,369483.683,417511.026,
canvas.Screen,25_0_0,2023-01-14T03:43:26.050Z,,,d,,,135,258.87,timeout,2R.jpg,,,417998.1,417997.8,417736.6,417737.5,417511.026,417769.896,
canvas.Screen,25_0_1,2023-01-14T03:43:26.804Z,,,d,,,135,757.55,timeout,2R.jpg,,,418751.9,418751.6,417997.8,417998.3,417769.896,418527.446,
canvas.Screen,25_0_2,2023-01-14T03:43:27.133Z,,,d,,,135,333.395,timeout,2R.jpg,,,419080.4,419080,418751.6,418752,418527.446,418860.841,
canvas.Screen,25_0_3,2023-01-14T03:43:29.046Z,,,d,FALSE,d,135,2132.259,response,2R.jpg,b,keypress(f),420993.6,420993.1,419080,419080.5,418860.841,420793.489,
canvas.Screen,25_0_4,2023-01-14T03:43:29.397Z,,,d,,,135,334.776,timeout,2R.jpg,,,421344.9,421344.5,420776.629,421001,420793.489,421128.265,
flow.Sequence,25_0,2023-01-14T03:43:29.397Z,,,d,,,135,3833.474,completion,2R.jpg,,,421345.2,421344.5,417736.6,417737.5,417511.026,421128.265,
canvas.Screen,25_1_0,2023-01-14T03:43:29.732Z,,,b,,,90,332.847,timeout,2.jpg,,,421679.9,421679.5,421344.5,421345.3,421128.265,421461.112,
canvas.Screen,25_1_1,2023-01-14T03:43:30.500Z,,,b,,,90,765.611,timeout,2.jpg,,,422448.1,422447.8,421679.5,421680.1,421461.112,422226.723,
canvas.Screen,25_1_2,2023-01-14T03:43:30.829Z,,,b,,,90,333.222,timeout,2.jpg,,,422776.6,422776.3,422447.8,422448.2,422226.723,422559.945,
canvas.Screen,25_1_3,2023-01-14T03:43:31.902Z,,,b,FALSE,b,90,1288.655,response,2.jpg,d,keypress(j),423849.8,423848.6,422776.3,422776.8,422559.945,423659.664,
canvas.Screen,25_1_4,2023-01-14T03:43:32.261Z,,,b,,,90,333.38,timeout,2.jpg,,,424208.8,424208.4,423638.378,423859.5,423659.664,423993.044,
flow.Sequence,25_1,2023-01-14T03:43:32.261Z,,,b,,,90,3080.135,completion,2.jpg,,,424209.1,424208.4,421344.5,421345.3,421128.265,423993.044,
canvas.Screen,25_2_0,2023-01-14T03:43:32.596Z,,,b,,,225,333.58,timeout,2.jpg,,,424543.4,424543.1,424208.4,424209.3,423993.044,424326.624,
canvas.Screen,25_2_1,2023-01-14T03:43:33.364Z,,,b,,,225,766.471,timeout,2.jpg,,,425311.9,425311.6,424543.1,424543.5,424326.624,425093.095,
canvas.Screen,25_2_2,2023-01-14T03:43:33.636Z,,,b,,,225,266.452,timeout,2.jpg,,,425583.9,425583.6,425311.6,425312.1,425093.095,425359.547,
canvas.Screen,25_2_3,2023-01-14T03:43:35.239Z,,,b,TRUE,b,225,1824.853,response,2.jpg,b,keypress(f),427186.3,427184.4,425583.6,425584.1,425359.547,426975.763,
canvas.Screen,25_2_4,2023-01-14T03:43:35.508Z,,,b,,,225,250.284,timeout,2.jpg,,,427456.3,427455.8,426959.77,427188.6,426975.763,427226.047,
flow.Sequence,25_2,2023-01-14T03:43:35.509Z,,,b,,,225,3462.756,completion,2.jpg,,,427456.5,427455.8,424208.4,424209.2,423993.044,427226.047,
canvas.Screen,25_3_0,2023-01-14T03:43:35.829Z,,,b,,,180,333.517,timeout,2.jpg,,,427776.6,427776.2,427455.8,427456.7,427226.047,427559.564,
canvas.Screen,25_3_1,2023-01-14T03:43:36.596Z,,,b,,,180,758.77,timeout,2.jpg,,,428544.1,428543.7,427776.2,427776.8,427559.564,428318.334,
canvas.Screen,25_3_2,2023-01-14T03:43:36.853Z,,,b,,,180,257.697,timeout,2.jpg,,,428801.1,428800.7,428543.7,428544.3,428318.334,428576.031,
canvas.Screen,25_3_3,2023-01-14T03:43:38.333Z,,,b,TRUE,b,180,1704.269,response,2.jpg,b,keypress(f),430280.6,430280.3,428800.7,428801.3,428576.031,430075.322,
canvas.Screen,25_3_4,2023-01-14T03:43:38.604Z,,,b,,,180,250.181,timeout,2.jpg,,,430552,430551.7,430057.985,430286,430075.322,430325.503,
flow.Sequence,25_3,2023-01-14T03:43:38.604Z,,,b,,,180,3325.653,completion,2.jpg,,,430552.3,430551.7,427455.8,427456.7,427226.047,430325.503,
canvas.Screen,25_4_0,2023-01-14T03:43:38.932Z,,,b,,,270,334.585,timeout,2.jpg,,,430879.6,430879.3,430551.7,430552.4,430325.503,430660.088,
canvas.Screen,25_4_1,2023-01-14T03:43:39.693Z,,,b,,,270,751.214,timeout,2.jpg,,,431640.3,431640,430879.3,430879.9,430660.088,431411.302,
canvas.Screen,25_4_2,2023-01-14T03:43:39.949Z,,,b,,,270,264.237,timeout,2.jpg,,,431896.7,431896.3,431640,431640.5,431411.302,431675.539,
canvas.Screen,25_4_3,2023-01-14T03:43:40.731Z,,,b,TRUE,b,270,1002.161,response,2.jpg,b,keypress(f),432678.7,432677.7,431896.3,431896.9,431675.539,432475.274,
canvas.Screen,25_4_4,2023-01-14T03:43:41.004Z,,,b,,,270,243.263,timeout,2.jpg,,,432951.4,432951.1,432458.677,432680.9,432475.274,432718.537,
flow.Sequence,25_4,2023-01-14T03:43:41.004Z,,,b,,,270,2625.597,completion,2.jpg,,,432951.7,432951.1,430551.7,430552.3,430325.503,432718.537,
canvas.Screen,25_5_0,2023-01-14T03:43:41.252Z,,,d,,,225,256.7,timeout,2R.jpg,,,433200.2,433200,432951.1,432951.8,432718.537,432975.237,
canvas.Screen,25_5_1,2023-01-14T03:43:42.012Z,,,d,,,225,766.644,timeout,2R.jpg,,,433959.8,433959.4,433200,433200.4,432975.237,433741.881,
canvas.Screen,25_5_2,2023-01-14T03:43:42.348Z,,,d,,,225,333.298,timeout,2R.jpg,,,434295.7,434295.3,433959.4,433960,433741.881,434075.179,
canvas.Screen,25_5_3,2023-01-14T03:43:44.375Z,,,d,TRUE,d,225,2247.021,response,2R.jpg,d,keypress(j),436322.7,436322.2,434295.3,434295.8,434075.179,436124.837,
canvas.Screen,25_5_4,2023-01-14T03:43:44.660Z,,,d,,,225,266.585,timeout,2R.jpg,,,436607.9,436607.6,436107.917,436328.3,436124.837,436391.422,
flow.Sequence,25_5,2023-01-14T03:43:44.660Z,,,d,,,225,3889.063,completion,2R.jpg,,,436608.2,436607.6,432951.1,432951.8,432718.537,436391.422,
canvas.Screen,25_6_0,2023-01-14T03:43:44.995Z,,,d,,,0,333.345,timeout,2R.jpg,,,436943.2,436943.1,436607.6,436608.3,436391.422,436724.767,
canvas.Screen,25_6_1,2023-01-14T03:43:45.764Z,,,d,,,0,767.212,timeout,2R.jpg,,,437711.9,437711.6,436943.1,436943.3,436724.767,437491.979,
canvas.Screen,25_6_2,2023-01-14T03:43:46.021Z,,,d,,,0,258.524,timeout,2R.jpg,,,437968.6,437968.3,437711.6,437712.1,437491.979,437750.503,
canvas.Screen,25_6_3,2023-01-14T03:43:47.032Z,,,d,TRUE,d,0,1228.197,response,2R.jpg,d,keypress(j),438979.6,438978.7,437968.3,437968.8,437750.503,438774.229,
canvas.Screen,25_6_4,2023-01-14T03:43:47.380Z,,,d,,,0,334.126,timeout,2R.jpg,,,439327.7,439327.4,438760.152,438981.6,438774.229,439108.355,
flow.Sequence,25_6,2023-01-14T03:43:47.380Z,,,d,,,0,2935.978,completion,2R.jpg,,,439328.1,439327.4,436607.6,436608.3,436391.422,439108.355,
canvas.Screen,25_7_0,2023-01-14T03:43:47.636Z,,,d,,,270,249.44,timeout,2R.jpg,,,439583.7,439583.5,439327.4,439328.2,439108.355,439357.795,
canvas.Screen,25_7_1,2023-01-14T03:43:48.396Z,,,d,,,270,753.079,timeout,2R.jpg,,,440343.5,440343.4,439583.5,439584,439357.795,440110.874,
canvas.Screen,25_7_2,2023-01-14T03:43:48.644Z,,,d,,,270,249.269,timeout,2R.jpg,,,440592,440591.8,440343.4,440343.6,440110.874,440360.143,
canvas.Screen,25_7_3,2023-01-14T03:43:50.328Z,,,d,TRUE,d,270,1915.057,response,2R.jpg,d,keypress(j),442276.1,442275.2,440591.8,440592.3,440360.143,442073.799,
canvas.Screen,25_7_4,2023-01-14T03:43:50.605Z,,,d,,,270,250.233,timeout,2R.jpg,,,442552.5,442552.1,442059.364,442282.4,442073.799,442324.032,
flow.Sequence,25_7,2023-01-14T03:43:50.605Z,,,d,,,270,3443.745,completion,2R.jpg,,,442552.8,442552.1,439327.4,439328.1,439108.355,442324.032,
canvas.Screen,25_8_0,2023-01-14T03:43:50.852Z,,,d,,,315,243.367,timeout,2R.jpg,,,442799.9,442799.5,442552.1,442553,442324.032,442567.399,
canvas.Screen,25_8_1,2023-01-14T03:43:51.596Z,,,d,,,315,756.49,timeout,2R.jpg,,,443544,443543.7,442799.5,442800,442567.399,443323.889,
canvas.Screen,25_8_2,2023-01-14T03:43:51.853Z,,,d,,,315,249.928,timeout,2R.jpg,,,443800.9,443800.7,443543.7,443544.2,443323.889,443573.817,
canvas.Screen,25_8_3,2023-01-14T03:43:54.585Z,,,d,TRUE,d,315,2958.483,response,2R.jpg,d,keypress(j),446533,446532.3,443800.7,443801.2,443573.817,446340.01,
canvas.Screen,25_8_4,2023-01-14T03:43:54.868Z,,,d,,,315,250.041,timeout,2R.jpg,,,446816.1,446815.7,446323.981,446540.3,446340.01,446590.051,
flow.Sequence,25_8,2023-01-14T03:43:54.869Z,,,d,,,315,4491.668,completion,2R.jpg,,,446816.3,446815.7,442552.1,442552.9,442324.032,446590.051,
canvas.Screen,25_9_0,2023-01-14T03:43:55.196Z,,,d,,,180,333.3,timeout,2R.jpg,,,447144,447143.7,446815.7,446816.5,446590.051,446923.351,
