sender,sender_type,sender_id,timestamp,meta,,answer,correct,correctResponse,deg,duration,ended_on,image,response,response_action,time_commit,time_end,time_render,time_run,time_show,time_switch,url
イントロ1,html.Page,0,2023-01-10T07:18:41.393Z,"{""labjs_version"":""20.2.4"",""labjs_build"":{""flavor"":""development"",""commit"":""f5b4a49f956347addd546a832a3327688c2c0fef""},""location"":""https://labjs.felixhenninger.com/api/labjs_preview/index.html"",""userAgent"":""Mozilla/5.0 (Macintosh; Intel Mac OS X 10_15_7) AppleWebKit/537.36 (KHTML, like Gecko) Chrome/108.0.0.0 Safari/537.36"",""platform"":""MacIntel"",""language"":""ja"",""locale"":""ja"",""timeZone"":""Asia/Tokyo"",""timezoneOffset"":-540,""screen_width"":1440,""screen_height"":900,""scroll_width"":1440,""scroll_height"":741,""window_innerWidth"":1440,""window_innerHeight"":789,""devicePixelRatio"":2}",,,,,,12395.75800000596,form submission,,,,12728.199999988079,12727.90000000596,265.478,409.69999998807907,332.142,12666.006,{}
イントロ2,html.Page,1,2023-01-10T07:18:54.431Z,,,,,,,13100.394000005961,form submission,,,,25766.59999999404,25766.40000000596,12649.34,12728.5,12666.006,25698.818,
イントロ3,html.Page,2,2023-01-10T07:19:07.548Z,,,,,,,13184.48199998212,form submission,,,,38883.79999998212,38883.29999998212,25682.152,25766.79999998212,25698.818,38815.694,
イントロ4,html.Page,3,2023-01-10T07:19:51.186Z,,,,,,,43706.505999988076,form submission,,,,82522.69999998808,82522.19999998808,38799.028,38884,38815.694,82450.042,
イントロ5,html.Page,4,2023-01-10T07:19:54.458Z,,,,,,,3343.5579999940383,form submission,,,,85794.09999999404,85793.59999999404,82433.376,82523,82450.042,85749.91,
できるだけ早く正確に,canvas.Screen,5,2023-01-10T07:19:55.470Z,,,,,,,999.9599999999919,timeout,,,,86806.79999998212,86733.204,85716.578,85794.40000000596,85749.91,86749.87,
空白時間1 (0.5秒),canvas.Screen,6_0_0,2023-01-10T07:19:55.970Z,,,b,,,270,499.9800000000105,timeout,e.jpg,,,87306.19999998808,87233.184,86733.204,86807.29999998212,86749.87,87249.85,
注視(1秒),canvas.Screen,6_0_1,2023-01-10T07:19:56.970Z,,,b,,,270,999.9599999999919,timeout,e.jpg,,,88306.90000000596,88233.144,87233.184,87306.79999998212,87249.85,88249.81,
空白時間2 (0.5秒),canvas.Screen,6_0_2,2023-01-10T07:19:57.470Z,,,b,,,270,499.9799999999959,timeout,e.jpg,,,88806.5,88733.124,88233.144,88307.29999998212,88249.81,88749.79,
刺激提示(練習),canvas.Screen,6_0_3,2023-01-10T07:20:21.697Z,,,b,true,b,270,24263.509999982125,response,e.jpg,b,keypress(f),113034,113013.29999998212,88733.124,88806.69999998808,88749.79,112967.28,
フィードバック(0.5秒),canvas.Screen,6_0_4,2023-01-10T07:20:22.187Z,,,b,,,270,499.9799999999959,timeout,e.jpg,,,113523.90000000596,113450.594,112950.614,113035.29999998212,112967.28,113467.26,
トライアル,flow.Sequence,6_0,2023-01-10T07:20:22.188Z,,,b,,,270,26700.724000000002,completion,e.jpg,,,113524.69999998808,113450.594,86733.204,86807.29999998212,86749.87,113467.26,
空白時間1 (0.5秒),canvas.Screen,6_1_0,2023-01-10T07:20:22.688Z,,,d,,,315,499.9800000000105,timeout,eR.jpg,,,114024.79999998212,113950.574,113450.594,113525,113467.26,113967.24,
注視(1秒),canvas.Screen,6_1_1,2023-01-10T07:20:23.687Z,,,d,,,315,999.9599999999919,timeout,eR.jpg,,,115024.09999999404,114950.534,113950.574,114025,113967.24,114967.2,
空白時間2 (0.5秒),canvas.Screen,6_1_2,2023-01-10T07:20:24.187Z,,,d,,,315,499.9799999999959,timeout,eR.jpg,,,115523.90000000596,115450.514,114950.534,115024.29999998212,114967.2,115467.18,
刺激提示(練習),canvas.Screen,6_1_3,2023-01-10T07:20:25.756Z,,,d,true,d,315,1619.1199999821256,response,eR.jpg,d,keypress(j),117092.90000000596,117086.29999998212,115450.514,115524.29999998212,115467.18,117050.45,
フィードバック(0.5秒),canvas.Screen,6_1_4,2023-01-10T07:20:26.271Z,,,d,,,315,500.5219999999972,timeout,eR.jpg,,,117608.19999998808,117534.306,117033.784,117109.40000000596,117050.45,117550.972,
トライアル,flow.Sequence,6_1,2023-01-10T07:20:26.271Z,,,d,,,315,4067.046000000002,completion,eR.jpg,,,117608.40000000596,117534.306,113450.594,113524.90000000596,113467.26,117550.972,
空白時間1 (0.5秒),canvas.Screen,6_2_0,2023-01-10T07:20:26.771Z,,,b,,,180,499.9800000000105,timeout,e.jpg,,,118108.40000000596,118034.286,117534.306,117608.59999999404,117550.972,118050.952,
注視(1秒),canvas.Screen,6_2_1,2023-01-10T07:20:27.771Z,,,b,,,180,999.9599999999919,timeout,e.jpg,,,119108.5,119034.246,118034.286,118108.79999998212,118050.952,119050.912,
空白時間2 (0.5秒),canvas.Screen,6_2_2,2023-01-10T07:20:28.271Z,,,b,,,180,499.9800000000105,timeout,e.jpg,,,119607.59999999404,119534.226,119034.246,119108.90000000596,119050.912,119550.892,
刺激提示(練習),canvas.Screen,6_2_3,2023-01-10T07:20:30.303Z,,,b,false,b,180,2082.7079999940324,response,e.jpg,d,keypress(j),121639.69999998808,121633.59999999404,119534.226,119608,119550.892,121600.81,
フィードバック(0.5秒),canvas.Screen,6_2_4,2023-01-10T07:20:30.821Z,,,b,,,180,499.9799999999959,timeout,e.jpg,,,122158.29999998212,122084.124,121584.144,121656.40000000596,121600.81,122100.79,
トライアル,flow.Sequence,6_2,2023-01-10T07:20:30.822Z,,,b,,,180,4533.152000000002,completion,e.jpg,,,122158.69999998808,122084.124,117534.306,117608.5,117550.972,122100.79,
空白時間1 (0.5秒),canvas.Screen,6_3_0,2023-01-10T07:20:31.321Z,,,d,,,135,499.9800000000105,timeout,eR.jpg,,,122658.29999998212,122584.104,122084.124,122159,122100.79,122600.77,
注視(1秒),canvas.Screen,6_3_1,2023-01-10T07:20:32.320Z,,,d,,,135,999.9599999999919,timeout,eR.jpg,,,123657,123584.064,122584.104,122658.59999999404,122600.77,123600.73,
空白時間2 (0.5秒),canvas.Screen,6_3_2,2023-01-10T07:20:32.820Z,,,d,,,135,499.9800000000105,timeout,eR.jpg,,,124157.40000000596,124084.044,123584.064,123657.5,123600.73,124100.71,
刺激提示(練習),canvas.Screen,6_3_3,2023-01-10T07:20:35.701Z,,,d,true,d,135,2931.4899999880727,response,eR.jpg,d,keypress(j),127038.5,127032.19999998808,124084.044,124157.69999998808,124100.71,126983.928,
フィードバック(0.5秒),canvas.Screen,6_3_4,2023-01-10T07:20:36.204Z,,,d,,,135,499.9799999999959,timeout,eR.jpg,,,127540.79999998212,127467.242,126967.262,127054,126983.928,127483.908,
トライアル,flow.Sequence,6_3,2023-01-10T07:20:36.204Z,,,d,,,135,5366.452000000005,completion,eR.jpg,,,127541.29999998212,127467.242,122084.124,122158.90000000596,122100.79,127483.908,
練習試行(e),flow.Loop,6,2023-01-10T07:20:36.204Z,,,,,,,40717.372,completion,,,,127541.5,127467.242,86733.204,86807.19999998808,86749.87,127483.908,
イントロ6,html.Page,7,2023-01-10T07:20:41.612Z,,,,,,,5464.891999982123,form submission,,,,132948.90000000596,132948.79999998212,127467.242,127541.69999998808,127483.908,132867.635,
できるだけ早く正確に,canvas.Screen,8,2023-01-10T07:20:42.586Z,,,,,,,999.9599999999919,timeout,,,,133923.59999999404,133850.929,132850.969,132949,132867.635,133867.595,
空白時間1 (0.5秒),canvas.Screen,9_0_0,2023-01-10T07:20:43.088Z,,,d,,,45,499.9800000000105,timeout,eR.jpg,,,134424.90000000596,134350.909,133850.929,133924.09999999404,133867.595,134367.575,
注視(1秒),canvas.Screen,9_0_1,2023-01-10T07:20:44.088Z,,,d,,,45,999.9599999999919,timeout,eR.jpg,,,135425.29999998212,135350.869,134350.909,134425.19999998808,134367.575,135367.535,
空白時間2 (0.5秒),canvas.Screen,9_0_2,2023-01-10T07:20:44.587Z,,,d,,,45,499.9800000000105,timeout,eR.jpg,,,135924.29999998212,135850.849,135350.869,135425.59999999404,135367.535,135867.515,
刺激提示,canvas.Screen,9_0_3,2023-01-10T07:20:45.801Z,,,d,true,d,45,1264.7849999821046,response,eR.jpg,d,keypress(j),137138.5,137132.29999998212,135850.849,135924.59999999404,135867.515,137084.133,
フィードバック(0.5秒),canvas.Screen,9_0_4,2023-01-10T07:20:46.304Z,,,d,,,45,499.9800000000105,timeout,eR.jpg,,,137641.79999998212,137567.447,137050.801,137153.29999998212,137084.133,137584.113,
トライアル,flow.Sequence,9_0,2023-01-10T07:20:46.305Z,,,d,,,45,3699.8519999999844,completion,eR.jpg,,,137642.19999998808,137567.447,133850.929,133924,133867.595,137584.113,
空白時間1 (0.5秒),canvas.Screen,9_1_0,2023-01-10T07:20:46.805Z,,,b,,,90,500.57299999997485,timeout,e.jpg,,,138142.09999999404,138068.02,137567.447,137642.5,137584.113,138084.686,
注視(1秒),canvas.Screen,9_1_1,2023-01-10T07:20:47.805Z,,,b,,,90,999.960000000021,timeout,e.jpg,,,139142.19999998808,139067.98,138068.02,138142.5,138084.686,139084.646,
空白時間2 (0.5秒),canvas.Screen,9_1_2,2023-01-10T07:20:48.304Z,,,b,,,90,499.9799999999814,timeout,e.jpg,,,139641.5,139567.96,139067.98,139142.59999999404,139084.646,139584.626,
刺激提示,canvas.Screen,9_1_3,2023-01-10T07:20:49.240Z,,,b,true,b,90,986.4739999940502,response,e.jpg,b,keypress(f),140577.59999999404,140571.09999999404,139567.96,139642,139584.626,140534.588,
フィードバック(0.5秒),canvas.Screen,9_1_4,2023-01-10T07:20:49.754Z,,,b,,,90,499.9800000000105,timeout,e.jpg,,,141091.90000000596,141017.902,140517.922,140592.5,140534.588,141034.568,
トライアル,flow.Sequence,9_1,2023-01-10T07:20:49.755Z,,,b,,,90,3433.7889999999898,completion,e.jpg,,,141092.40000000596,141017.902,137567.447,137642.40000000596,137584.113,141034.568,
空白時間1 (0.5秒),canvas.Screen,9_2_0,2023-01-10T07:20:50.254Z,,,d,,,0,499.9800000000105,timeout,eR.jpg,,,141591.79999998212,141517.882,141017.902,141092.69999998808,141034.568,141534.548,
注視(1秒),canvas.Screen,9_2_1,2023-01-10T07:20:51.254Z,,,d,,,0,999.9599999999919,timeout,eR.jpg,,,142591.5,142517.842,141517.882,141592.19999998808,141534.548,142534.508,
空白時間2 (0.5秒),canvas.Screen,9_2_2,2023-01-10T07:20:51.754Z,,,d,,,0,499.9800000000105,timeout,eR.jpg,,,143091.59999999404,143017.822,142517.842,142591.90000000596,142534.508,143034.488,
刺激提示,canvas.Screen,9_2_3,2023-01-10T07:20:55.317Z,,,d,true,d,0,3614.011999999988,response,eR.jpg,d,keypress(j),146654.90000000596,146648.5,143017.822,143092,143034.488,146601.012,
フィードバック(0.5秒),canvas.Screen,9_2_4,2023-01-10T07:20:55.821Z,,,d,,,0,499.9800000000105,timeout,eR.jpg,,,147158.5,147084.326,146584.346,146671.59999999404,146601.012,147100.992,
トライアル,flow.Sequence,9_2,2023-01-10T07:20:55.821Z,,,d,,,0,6049.758000000002,completion,eR.jpg,,,147158.90000000596,147084.326,141017.902,141092.59999999404,141034.568,147100.992,
空白時間1 (0.5秒),canvas.Screen,9_3_0,2023-01-10T07:20:56.321Z,,,b,,,0,499.9800000000105,timeout,e.jpg,,,147658.19999998808,147584.306,147084.326,147159.19999998808,147100.992,147600.972,
注視(1秒),canvas.Screen,9_3_1,2023-01-10T07:20:57.321Z,,,b,,,0,1000.5129999999772,timeout,e.jpg,,,148658.59999999404,148584.819,147584.306,147658.40000000596,147600.972,148601.485,
空白時間2 (0.5秒),canvas.Screen,9_3_2,2023-01-10T07:20:57.820Z,,,b,,,0,499.9800000000105,timeout,e.jpg,,,149158,149084.799,148584.819,148659,148601.485,149101.465,
刺激提示,canvas.Screen,9_3_3,2023-01-10T07:20:58.542Z,,,b,true,b,0,772.134999994043,response,e.jpg,b,keypress(f),149879.19999998808,149873.59999999404,149084.799,149158.40000000596,149101.465,149834.769,
フィードバック(0.5秒),canvas.Screen,9_3_4,2023-01-10T07:20:59.054Z,,,b,,,0,499.9800000000105,timeout,e.jpg,,,150391.59999999404,150318.083,149818.103,149895.09999999404,149834.769,150334.749,
トライアル,flow.Sequence,9_3,2023-01-10T07:20:59.054Z,,,b,,,0,3217.091000000015,completion,e.jpg,,,150392,150318.083,147084.326,147159.09999999404,147100.992,150334.749,
空白時間1 (0.5秒),canvas.Screen,9_4_0,2023-01-10T07:20:59.555Z,,,d,,,180,499.9799999999814,timeout,eR.jpg,,,150892.09999999404,150818.063,150318.083,150392.29999998212,150334.749,150834.729,
注視(1秒),canvas.Screen,9_4_1,2023-01-10T07:21:00.554Z,,,d,,,180,999.960000000021,timeout,eR.jpg,,,151891.5,151818.023,150818.063,150892.5,150834.729,151834.689,
空白時間2 (0.5秒),canvas.Screen,9_4_2,2023-01-10T07:21:01.054Z,,,d,,,180,499.9799999999814,timeout,eR.jpg,,,152391.69999998808,152318.003,151818.023,151891.90000000596,151834.689,152334.669,
刺激提示,canvas.Screen,9_4_3,2023-01-10T07:21:05.477Z,,,d,true,d,180,4476.430999994045,response,eR.jpg,d,keypress(j),156815.09999999404,156811.09999999404,152318.003,152392,152334.669,156767.825,
フィードバック(0.5秒),canvas.Screen,9_4_4,2023-01-10T07:21:05.987Z,,,d,,,180,499.9799999999814,timeout,eR.jpg,,,157324.90000000596,157251.139,156751.159,156822.79999998212,156767.825,157267.805,
トライアル,flow.Sequence,9_4,2023-01-10T07:21:05.988Z,,,d,,,180,6916.389999999985,completion,eR.jpg,,,157325.40000000596,157251.139,150318.083,150392.19999998808,150334.749,157267.805,
空白時間1 (0.5秒),canvas.Screen,9_5_0,2023-01-10T07:21:06.487Z,,,b,,,225,499.9800000000105,timeout,e.jpg,,,157824.90000000596,157751.119,157251.139,157325.59999999404,157267.805,157767.785,
注視(1秒),canvas.Screen,9_5_1,2023-01-10T07:21:07.488Z,,,b,,,225,1000.5169999999925,timeout,e.jpg,,,158825.40000000596,158751.636,157751.119,157825.29999998212,157767.785,158768.302,
空白時間2 (0.5秒),canvas.Screen,9_5_2,2023-01-10T07:21:07.987Z,,,b,,,225,499.9800000000105,timeout,e.jpg,,,159325.19999998808,159251.616,158751.636,158825.90000000596,158768.302,159268.282,
刺激提示,canvas.Screen,9_5_3,2023-01-10T07:21:08.898Z,,,b,true,b,225,961.9179999880726,response,e.jpg,b,keypress(f),160236.19999998808,160230.19999998808,159251.616,159325.5,159268.282,160184.912,
フィードバック(0.5秒),canvas.Screen,9_5_4,2023-01-10T07:21:09.404Z,,,b,,,225,499.9799999999814,timeout,e.jpg,,,160741.79999998212,160668.226,160168.246,160253,160184.912,160684.892,
トライアル,flow.Sequence,9_5,2023-01-10T07:21:09.404Z,,,b,,,225,3400.421000000002,completion,e.jpg,,,160742.19999998808,160668.226,157251.139,157325.59999999404,157267.805,160684.892,
空白時間1 (0.5秒),canvas.Screen,9_6_0,2023-01-10T07:21:09.904Z,,,d,,,270,499.9800000000105,timeout,eR.jpg,,,161241.90000000596,161168.206,160668.226,160742.40000000596,160684.892,161184.872,
注視(1秒),canvas.Screen,9_6_1,2023-01-10T07:21:10.905Z,,,d,,,270,999.9599999999919,timeout,eR.jpg,,,162242.40000000596,162168.166,161168.206,161242.29999998212,161184.872,162184.832,
空白時間2 (0.5秒),canvas.Screen,9_6_2,2023-01-10T07:21:11.404Z,,,d,,,270,499.9800000000105,timeout,eR.jpg,,,162741.5,162668.146,162168.166,162242.79999998212,162184.832,162684.812,
刺激提示,canvas.Screen,9_6_3,2023-01-10T07:21:12.767Z,,,d,true,d,270,1413.7879999940342,response,eR.jpg,d,keypress(j),164104.79999998212,164098.59999999404,162668.146,162741.69999998808,162684.812,164051.424,
フィードバック(0.5秒),canvas.Screen,9_6_4,2023-01-10T07:21:13.271Z,,,d,,,270,499.9800000000105,timeout,eR.jpg,,,164608.40000000596,164534.738,164034.758,164119.5,164051.424,164551.404,
トライアル,flow.Sequence,9_6,2023-01-10T07:21:13.271Z,,,d,,,270,3849.8460000000196,completion,eR.jpg,,,164608.79999998212,164534.738,160668.226,160742.29999998212,160684.892,164551.404,
空白時間1 (0.5秒),canvas.Screen,9_7_0,2023-01-10T07:21:13.770Z,,,b,,,315,499.9799999999814,timeout,e.jpg,,,165108.09999999404,165034.718,164534.738,164608.90000000596,164551.404,165051.384,
注視(1秒),canvas.Screen,9_7_1,2023-01-10T07:21:14.770Z,,,b,,,315,999.960000000021,timeout,e.jpg,,,166108.19999998808,166034.678,165034.718,165108.5,165051.384,166051.344,
空白時間2 (0.5秒),canvas.Screen,9_7_2,2023-01-10T07:21:15.271Z,,,b,,,315,499.9799999999814,timeout,e.jpg,,,166608.90000000596,166534.658,166034.678,166108.59999999404,166051.344,166551.324,
刺激提示,canvas.Screen,9_7_3,2023-01-10T07:21:16.365Z,,,b,true,b,315,1144.7759999940463,response,e.jpg,b,keypress(f),167703.09999999404,167696.09999999404,166534.658,166609.40000000596,166551.324,167634.614,
フィードバック(0.5秒),canvas.Screen,9_7_4,2023-01-10T07:21:16.854Z,,,b,,,315,499.9800000000105,timeout,e.jpg,,,168191.40000000596,168117.928,167617.948,167704.90000000596,167634.614,168134.594,
トライアル,flow.Sequence,9_7,2023-01-10T07:21:16.854Z,,,b,,,315,3566.524000000005,completion,e.jpg,,,168192,168117.928,164534.738,164608.90000000596,164551.404,168134.594,
空白時間1 (0.5秒),canvas.Screen,9_8_0,2023-01-10T07:21:17.355Z,,,b,,,45,500.55099999997765,timeout,e.jpg,,,168692.40000000596,168618.479,168117.928,168192.19999998808,168134.594,168635.145,
注視(1秒),canvas.Screen,9_8_1,2023-01-10T07:21:18.355Z,,,b,,,45,999.960000000021,timeout,e.jpg,,,169692.40000000596,169618.439,168618.479,168692.59999999404,168635.145,169635.105,
空白時間2 (0.5秒),canvas.Screen,9_8_2,2023-01-10T07:21:18.854Z,,,b,,,45,499.9799999999814,timeout,e.jpg,,,170192.19999998808,170118.419,169618.439,169692.79999998212,169635.105,170135.085,
刺激提示,canvas.Screen,9_8_3,2023-01-10T07:21:20.793Z,,,b,true,b,45,1990.1149999880872,response,e.jpg,b,keypress(f),172131.29999998212,172125.19999998808,170118.419,170192.59999999404,170135.085,172085.007,
フィードバック(0.5秒),canvas.Screen,9_8_4,2023-01-10T07:21:21.304Z,,,b,,,45,499.9799999999814,timeout,e.jpg,,,172642.09999999404,172568.321,172068.341,172147.5,172085.007,172584.987,
トライアル,flow.Sequence,9_8,2023-01-10T07:21:21.305Z,,,b,,,45,4433.726999999984,completion,e.jpg,,,172642.59999999404,172568.321,168117.928,168192.09999999404,168134.594,172584.987,
空白時間1 (0.5秒),canvas.Screen,9_9_0,2023-01-10T07:21:21.804Z,,,d,,,135,499.9800000000105,timeout,eR.jpg,,,173141.5,173068.301,172568.321,172642.90000000596,172584.987,173084.967,
注視(1秒),canvas.Screen,9_9_1,2023-01-10T07:21:22.804Z,,,d,,,135,999.9599999999919,timeout,eR.jpg,,,174142.29999998212,174068.261,173068.301,173141.79999998212,173084.967,174084.927,
空白時間2 (0.5秒),canvas.Screen,9_9_2,2023-01-10T07:21:23.303Z,,,d,,,135,499.9800000000105,timeout,eR.jpg,,,174641,174568.241,174068.261,174142.79999998212,174084.927,174584.907,
刺激提示,canvas.Screen,9_9_3,2023-01-10T07:21:24.046Z,,,d,true,d,135,794.7929999880726,response,eR.jpg,d,keypress(j),175384.29999998212,175379.69999998808,174568.241,174641.19999998808,174584.907,175318.211,
フィードバック(0.5秒),canvas.Screen,9_9_4,2023-01-10T07:21:24.537Z,,,d,,,135,499.9799999999814,timeout,eR.jpg,,,175875.40000000596,175801.525,175301.545,175385.59999999404,175318.211,175818.191,
トライアル,flow.Sequence,9_9,2023-01-10T07:21:24.538Z,,,d,,,135,3216.5380000000005,completion,eR.jpg,,,175875.79999998212,175801.525,172568.321,172642.79999998212,172584.987,175818.191,
空白時間1 (0.5秒),canvas.Screen,9_10_0,2023-01-10T07:21:25.037Z,,,b,,,270,499.9800000000105,timeout,e.jpg,,,176375.19999998808,176301.505,175801.525,175876.09999999404,175818.191,176318.171,
注視(1秒),canvas.Screen,9_10_1,2023-01-10T07:21:26.037Z,,,b,,,270,999.9599999999919,timeout,e.jpg,,,177374.90000000596,177301.465,176301.505,176375.59999999404,176318.171,177318.131,
空白時間2 (0.5秒),canvas.Screen,9_10_2,2023-01-10T07:21:26.537Z,,,b,,,270,499.9800000000105,timeout,e.jpg,,,177874.59999999404,177801.445,177301.465,177375.29999998212,177318.131,177818.111,
刺激提示,canvas.Screen,9_10_3,2023-01-10T07:21:27.799Z,,,b,true,b,270,1311.3889999999956,response,e.jpg,b,keypress(f),179136.59999999404,179129.5,177801.445,177874.90000000596,177818.111,179084.727,
フィードバック(0.5秒),canvas.Screen,9_10_4,2023-01-10T07:21:28.303Z,,,b,,,270,500.5809999999765,timeout,e.jpg,,,179641.5,179568.642,179068.061,179153.09999999404,179084.727,179585.308,
トライアル,flow.Sequence,9_10,2023-01-10T07:21:28.304Z,,,b,,,270,3750.451000000001,completion,e.jpg,,,179642,179568.642,175801.525,175876,175818.191,179585.308,
空白時間1 (0.5秒),canvas.Screen,9_11_0,2023-01-10T07:21:28.805Z,,,d,,,225,499.9800000000105,timeout,eR.jpg,,,180142.69999998808,180068.622,179568.642,179642.19999998808,179585.308,180085.288,
注視(1秒),canvas.Screen,9_11_1,2023-01-10T07:21:29.804Z,,,d,,,225,999.9599999999919,timeout,eR.jpg,,,181142.19999998808,181068.582,180068.622,180143.09999999404,180085.288,181085.248,
空白時間2 (0.5秒),canvas.Screen,9_11_2,2023-01-10T07:21:30.305Z,,,d,,,225,499.9800000000105,timeout,eR.jpg,,,181642.90000000596,181568.562,181068.582,181142.59999999404,181085.248,181585.228,
刺激提示,canvas.Screen,9_11_3,2023-01-10T07:21:31.144Z,,,d,true,d,225,890.3719999940367,response,eR.jpg,d,keypress(j),182481.90000000596,182475.59999999404,181568.562,181643.29999998212,181585.228,182435.194,
フィードバック(0.5秒),canvas.Screen,9_11_4,2023-01-10T07:21:31.653Z,,,d,,,225,499.9800000000105,timeout,eR.jpg,,,182991.5,182918.508,182418.528,182497.5,182435.194,182935.174,
トライアル,flow.Sequence,9_11,2023-01-10T07:21:31.654Z,,,d,,,225,3333.2000000000116,completion,eR.jpg,,,182991.90000000596,182918.508,179568.642,179642.19999998808,179585.308,182935.174,
空白時間1 (0.5秒),canvas.Screen,9_12_0,2023-01-10T07:21:32.154Z,,,d,,,315,499.9800000000105,timeout,eR.jpg,,,183492.29999998212,183418.488,182918.508,182992.09999999404,182935.174,183435.154,
注視(1秒),canvas.Screen,9_12_1,2023-01-10T07:21:33.154Z,,,d,,,315,999.9599999999919,timeout,eR.jpg,,,184491.79999998212,184418.448,183418.488,183492.69999998808,183435.154,184435.114,
空白時間2 (0.5秒),canvas.Screen,9_12_2,2023-01-10T07:21:33.654Z,,,d,,,315,499.9800000000105,timeout,eR.jpg,,,184992.5,184918.428,184418.448,184491.90000000596,184435.114,184935.094,
刺激提示,canvas.Screen,9_12_3,2023-01-10T07:21:34.565Z,,,d,true,d,315,964.4059999999881,response,eR.jpg,d,keypress(j),185903.5,185899.5,184918.428,184992.79999998212,184935.094,185851.724,
フィードバック(0.5秒),canvas.Screen,9_12_4,2023-01-10T07:21:35.071Z,,,d,,,315,499.9800000000105,timeout,eR.jpg,,,186409.40000000596,186335.038,185835.058,185918.69999998808,185851.724,186351.704,
トライアル,flow.Sequence,9_12,2023-01-10T07:21:35.072Z,,,d,,,315,3399.8640000000014,completion,eR.jpg,,,186410,186335.038,182918.508,182992,182935.174,186351.704,
空白時間1 (0.5秒),canvas.Screen,9_13_0,2023-01-10T07:21:35.570Z,,,b,,,135,499.9800000000105,timeout,e.jpg,,,186908.29999998212,186835.018,186335.038,186410.19999998808,186351.704,186851.684,
注視(1秒),canvas.Screen,9_13_1,2023-01-10T07:21:36.570Z,,,b,,,135,999.9599999999919,timeout,e.jpg,,,187908.5,187834.978,186835.018,186908.5,186851.684,187851.644,
空白時間2 (0.5秒),canvas.Screen,9_13_2,2023-01-10T07:21:37.070Z,,,b,,,135,499.9800000000105,timeout,e.jpg,,,188408.59999999404,188334.958,187834.978,187908.90000000596,187851.644,188351.624,
刺激提示,canvas.Screen,9_13_3,2023-01-10T07:21:38.491Z,,,b,true,b,135,1472.7760000059498,response,e.jpg,b,keypress(f),189828.90000000596,189824.40000000596,188334.958,188408.79999998212,188351.624,189768.234,
フィードバック(0.5秒),canvas.Screen,9_13_4,2023-01-10T07:21:38.988Z,,,b,,,135,500.56700000001,timeout,e.jpg,,,190326.29999998212,190252.135,189751.568,189838.69999998808,189768.234,190268.801,
トライアル,flow.Sequence,9_13,2023-01-10T07:21:38.988Z,,,b,,,135,3900.4310000000114,completion,e.jpg,,,190326.69999998808,190252.135,186335.038,186410.09999999404,186351.704,190268.801,
空白時間1 (0.5秒),canvas.Screen,9_14_0,2023-01-10T07:21:39.488Z,,,b,,,180,499.9799999999814,timeout,e.jpg,,,190826,190752.115,190252.135,190326.90000000596,190268.801,190768.781,
注視(1秒),canvas.Screen,9_14_1,2023-01-10T07:21:40.488Z,,,b,,,180,999.960000000021,timeout,e.jpg,,,191826.09999999404,191752.075,190752.115,190826.40000000596,190768.781,191768.741,
空白時間2 (0.5秒),canvas.Screen,9_14_2,2023-01-10T07:21:40.987Z,,,b,,,180,499.9799999999814,timeout,e.jpg,,,192325.5,192252.055,191752.075,191826.40000000596,191768.741,192268.721,
刺激提示,canvas.Screen,9_14_3,2023-01-10T07:21:42.861Z,,,b,true,b,180,1923.9789999880886,response,e.jpg,b,keypress(f),194198.79999998212,194192.69999998808,192252.055,192325.90000000596,192268.721,194151.979,
フィードバック(0.5秒),canvas.Screen,9_14_4,2023-01-10T07:21:43.371Z,,,b,,,180,499.9800000000105,timeout,e.jpg,,,194709.29999998212,194635.293,194135.313,194215.59999999404,194151.979,194651.959,
トライアル,flow.Sequence,9_14,2023-01-10T07:21:43.371Z,,,b,,,180,4366.491999999998,completion,e.jpg,,,194709.79999998212,194635.293,190252.135,190326.90000000596,190268.801,194651.959,
空白時間1 (0.5秒),canvas.Screen,9_15_0,2023-01-10T07:21:43.871Z,,,d,,,90,499.9800000000105,timeout,eR.jpg,,,195208.90000000596,195135.273,194635.293,194710,194651.959,195151.939,
注視(1秒),canvas.Screen,9_15_1,2023-01-10T07:21:44.870Z,,,d,,,90,999.9599999999919,timeout,eR.jpg,,,196208.79999998212,196135.233,195135.273,195209.19999998808,195151.939,196151.899,
空白時間2 (0.5秒),canvas.Screen,9_15_2,2023-01-10T07:21:45.370Z,,,d,,,90,499.9799999999814,timeout,eR.jpg,,,196708.59999999404,196635.213,196135.233,196209,196151.899,196651.879,
刺激提示,canvas.Screen,9_15_3,2023-01-10T07:21:46.536Z,,,d,true,d,90,1217.0210000059742,response,eR.jpg,d,keypress(j),197874.59999999404,197868.90000000596,196635.213,196709,196651.879,197835.165,
フィードバック(0.5秒),canvas.Screen,9_15_4,2023-01-10T07:21:47.054Z,,,d,,,90,499.9799999999814,timeout,eR.jpg,,,198392.40000000596,198318.479,197818.499,197891.5,197835.165,198335.145,
トライアル,flow.Sequence,9_15,2023-01-10T07:21:47.055Z,,,d,,,90,3666.5199999999895,completion,eR.jpg,,,198393,198318.479,194635.293,194709.90000000596,194651.959,198335.145,
タスクのセット,flow.Loop,9,2023-01-10T07:21:47.055Z,,,,,,,64450.88399999999,completion,,,,198393.09999999404,198318.479,133850.929,133924,133867.595,198335.145,
空白時間1 (0.5秒),canvas.Screen,10_0_0,2023-01-10T07:21:47.553Z,,,b,,,180,499.9800000000105,timeout,e.jpg,,,198891.69999998808,198818.459,198318.479,198393.5,198335.145,198835.125,
注視(1秒),canvas.Screen,10_0_1,2023-01-10T07:21:48.554Z,,,b,,,180,999.9599999999919,timeout,e.jpg,,,199892.40000000596,199818.419,198818.459,198892,198835.125,199835.085,
空白時間2 (0.5秒),canvas.Screen,10_0_2,2023-01-10T07:21:49.054Z,,,b,,,180,500.5340000000142,timeout,e.jpg,,,200392.79999998212,200318.953,199818.419,199892.69999998808,199835.085,200335.619,
刺激提示,canvas.Screen,10_0_3,2023-01-10T07:21:50.145Z,,,b,true,b,180,1142.1809999821126,response,e.jpg,b,keypress(f),201483.09999999404,201477.79999998212,200318.953,200393.29999998212,200335.619,201418.909,
フィードバック(0.5秒),canvas.Screen,10_0_4,2023-01-10T07:21:50.638Z,,,b,,,180,499.9799999999814,timeout,e.jpg,,,201976.09999999404,201902.223,201402.243,201485.29999998212,201418.909,201918.889,
トライアル,flow.Sequence,10_0,2023-01-10T07:21:50.638Z,,,b,,,180,3567.0780000000086,completion,e.jpg,,,201976.5,201902.223,198318.479,198393.40000000596,198335.145,201918.889,
空白時間1 (0.5秒),canvas.Screen,10_1_0,2023-01-10T07:21:51.137Z,,,d,,,225,499.9800000000105,timeout,eR.jpg,,,202475.90000000596,202402.203,201902.223,201976.69999998808,201918.889,202418.869,
注視(1秒),canvas.Screen,10_1_1,2023-01-10T07:21:52.137Z,,,d,,,225,999.9599999999919,timeout,eR.jpg,,,203475.90000000596,203402.163,202402.203,202476.19999998808,202418.869,203418.829,
空白時間2 (0.5秒),canvas.Screen,10_1_2,2023-01-10T07:21:52.638Z,,,d,,,225,499.9800000000105,timeout,eR.jpg,,,203976.19999998808,203902.143,203402.163,203476.29999998212,203418.829,203918.809,
刺激提示,canvas.Screen,10_1_3,2023-01-10T07:21:53.946Z,,,d,true,d,225,1359.3909999880707,response,eR.jpg,d,keypress(j),205284.09999999404,205278.19999998808,203902.143,203976.5,203918.809,205235.423,
フィードバック(0.5秒),canvas.Screen,10_1_4,2023-01-10T07:21:54.454Z,,,d,,,225,499.9799999999814,timeout,eR.jpg,,,205792.79999998212,205718.737,205218.757,205300.69999998808,205235.423,205735.403,
トライアル,flow.Sequence,10_1,2023-01-10T07:21:54.455Z,,,d,,,225,3799.847999999998,completion,eR.jpg,,,205793.29999998212,205718.737,201902.223,201976.59999999404,201918.889,205735.403,
空白時間1 (0.5秒),canvas.Screen,10_2_0,2023-01-10T07:21:54.954Z,,,d,,,180,499.9800000000105,timeout,eR.jpg,,,206292.79999998212,206218.717,205718.737,205793.5,205735.403,206235.383,
注視(1秒),canvas.Screen,10_2_1,2023-01-10T07:21:55.953Z,,,d,,,180,999.9599999999919,timeout,eR.jpg,,,207291.59999999404,207218.677,206218.717,206293.19999998808,206235.383,207235.343,
空白時間2 (0.5秒),canvas.Screen,10_2_2,2023-01-10T07:21:56.454Z,,,d,,,180,499.9800000000105,timeout,eR.jpg,,,207792.29999998212,207718.657,207218.677,207292,207235.343,207735.323,
刺激提示,canvas.Screen,10_2_3,2023-01-10T07:21:58.604Z,,,d,true,d,180,2200.876999988075,response,eR.jpg,d,keypress(j),209943,209936.19999998808,207718.657,207792.59999999404,207735.323,209901.903,
フィードバック(0.5秒),canvas.Screen,10_2_4,2023-01-10T07:21:59.121Z,,,d,,,180,500.52999999999884,timeout,eR.jpg,,,210459.90000000596,210385.767,209885.237,209959.79999998212,209901.903,210402.433,
トライアル,flow.Sequence,10_2,2023-01-10T07:21:59.122Z,,,d,,,180,4650.364000000001,completion,eR.jpg,,,210460.29999998212,210385.767,205718.737,205793.5,205735.403,210402.433,
空白時間1 (0.5秒),canvas.Screen,10_3_0,2023-01-10T07:21:59.621Z,,,b,,,0,499.9800000000105,timeout,e.jpg,,,210959.09999999404,210885.747,210385.767,210460.5,210402.433,210902.413,
注視(1秒),canvas.Screen,10_3_1,2023-01-10T07:22:00.620Z,,,b,,,0,999.9599999999919,timeout,e.jpg,,,211958.09999999404,211885.707,210885.747,210959.40000000596,210902.413,211902.373,
空白時間2 (0.5秒),canvas.Screen,10_3_2,2023-01-10T07:22:01.121Z,,,b,,,0,499.9800000000105,timeout,e.jpg,,,212459.90000000596,212385.687,211885.707,211958.40000000596,211902.373,212402.353,
刺激提示,canvas.Screen,10_3_3,2023-01-10T07:22:02.241Z,,,b,true,b,0,1171.4469999821158,response,e.jpg,b,keypress(f),213579.69999998808,213573.79999998212,212385.687,212460.40000000596,212402.353,213518.975,
フィードバック(0.5秒),canvas.Screen,10_3_4,2023-01-10T07:22:02.738Z,,,b,,,0,499.9799999999814,timeout,e.jpg,,,214076.5,214002.289,213502.309,213581.59999999404,213518.975,214018.955,
トライアル,flow.Sequence,10_3,2023-01-10T07:22:02.738Z,,,b,,,0,3599.8559999999998,completion,e.jpg,,,214077,214002.289,210385.767,210460.5,210402.433,214018.955,
空白時間1 (0.5秒),canvas.Screen,10_4_0,2023-01-10T07:22:03.237Z,,,b,,,45,499.9800000000105,timeout,e.jpg,,,214575.5,214502.269,214002.289,214077.19999998808,214018.955,214518.935,
注視(1秒),canvas.Screen,10_4_1,2023-01-10T07:22:04.237Z,,,b,,,45,999.9599999999919,timeout,e.jpg,,,215575.90000000596,215502.229,214502.269,214575.69999998808,214518.935,215518.895,
空白時間2 (0.5秒),canvas.Screen,10_4_2,2023-01-10T07:22:04.737Z,,,b,,,45,499.9800000000105,timeout,e.jpg,,,216075.69999998808,216002.209,215502.229,215576.09999999404,215518.895,216018.875,
刺激提示,canvas.Screen,10_4_3,2023-01-10T07:22:05.555Z,,,b,true,b,45,870.3249999880791,response,e.jpg,b,keypress(f),216893.69999998808,216889.19999998808,216002.209,216076.19999998808,216018.875,216852.175,
フィードバック(0.5秒),canvas.Screen,10_4_4,2023-01-10T07:22:06.071Z,,,b,,,45,499.9800000000105,timeout,e.jpg,,,217409.69999998808,217335.489,216835.509,216907.29999998212,216852.175,217352.155,
トライアル,flow.Sequence,10_4,2023-01-10T07:22:06.072Z,,,b,,,45,3316.534000000014,completion,e.jpg,,,217410.29999998212,217335.489,214002.289,214077.09999999404,214018.955,217352.155,
空白時間1 (0.5秒),canvas.Screen,10_5_0,2023-01-10T07:22:06.571Z,,,d,,,0,499.9800000000105,timeout,eR.jpg,,,217909.29999998212,217835.469,217335.489,217410.5,217352.155,217852.135,
注視(1秒),canvas.Screen,10_5_1,2023-01-10T07:22:07.571Z,,,d,,,0,999.9599999999919,timeout,eR.jpg,,,218909.29999998212,218835.429,217835.469,217909.59999999404,217852.135,218852.095,
空白時間2 (0.5秒),canvas.Screen,10_5_2,2023-01-10T07:22:08.070Z,,,d,,,0,499.9800000000105,timeout,eR.jpg,,,219409.19999998808,219335.409,218835.429,218909.69999998808,218852.095,219352.075,
刺激提示,canvas.Screen,10_5_3,2023-01-10T07:22:08.846Z,,,d,true,d,0,826.1249999880674,response,eR.jpg,d,keypress(j),220184.5,220178.19999998808,219335.409,219409.59999999404,219352.075,220135.377,
フィードバック(0.5秒),canvas.Screen,10_5_4,2023-01-10T07:22:09.353Z,,,d,,,0,500.5479999999807,timeout,eR.jpg,,,220692.19999998808,220619.259,220118.711,220200.90000000596,220135.377,220635.925,
トライアル,flow.Sequence,10_5,2023-01-10T07:22:09.354Z,,,d,,,0,3267.103999999992,completion,eR.jpg,,,220692.69999998808,220619.259,217335.489,217410.40000000596,217352.155,220635.925,
空白時間1 (0.5秒),canvas.Screen,10_6_0,2023-01-10T07:22:09.855Z,,,d,,,270,499.9800000000105,timeout,eR.jpg,,,221193.40000000596,221119.239,220619.259,220692.79999998212,220635.925,221135.905,
注視(1秒),canvas.Screen,10_6_1,2023-01-10T07:22:10.854Z,,,d,,,270,999.9599999999919,timeout,eR.jpg,,,222192.90000000596,222119.199,221119.239,221193.79999998212,221135.905,222135.865,
空白時間2 (0.5秒),canvas.Screen,10_6_2,2023-01-10T07:22:11.354Z,,,d,,,270,499.9800000000105,timeout,eR.jpg,,,222693.09999999404,222619.179,222119.199,222193.5,222135.865,222635.845,
刺激提示,canvas.Screen,10_6_3,2023-01-10T07:22:12.163Z,,,d,true,d,270,859.9549999821174,response,eR.jpg,d,keypress(j),223502.09999999404,223495.79999998212,222619.179,222693.59999999404,222635.845,223452.479,
フィードバック(0.5秒),canvas.Screen,10_6_4,2023-01-10T07:22:12.670Z,,,d,,,270,499.9800000000105,timeout,eR.jpg,,,224008.79999998212,223935.793,223435.813,223504.79999998212,223452.479,223952.459,
トライアル,flow.Sequence,10_6,2023-01-10T07:22:12.671Z,,,d,,,270,3299.8680000000168,completion,eR.jpg,,,224009.29999998212,223935.793,220619.259,220692.79999998212,220635.925,223952.459,
空白時間1 (0.5秒),canvas.Screen,10_7_0,2023-01-10T07:22:13.171Z,,,b,,,90,499.9800000000105,timeout,e.jpg,,,224509.90000000596,224435.773,223935.793,224009.5,223952.459,224452.439,
注視(1秒),canvas.Screen,10_7_1,2023-01-10T07:22:14.170Z,,,b,,,90,999.9599999999919,timeout,e.jpg,,,225509.19999998808,225435.733,224435.773,224510.29999998212,224452.439,225452.399,
空白時間2 (0.5秒),canvas.Screen,10_7_2,2023-01-10T07:22:14.670Z,,,b,,,90,499.9799999999814,timeout,e.jpg,,,226008.79999998212,225935.713,225435.733,225509.59999999404,225452.399,225952.379,
刺激提示,canvas.Screen,10_7_3,2023-01-10T07:22:15.306Z,,,b,true,b,90,686.8209999880928,response,e.jpg,b,keypress(f),226645.09999999404,226639.19999998808,225935.713,226009.09999999404,225952.379,226602.353,
フィードバック(0.5秒),canvas.Screen,10_7_4,2023-01-10T07:22:15.821Z,,,b,,,90,499.9800000000105,timeout,e.jpg,,,227159.69999998808,227085.667,226585.687,226660.29999998212,226602.353,227102.333,
トライアル,flow.Sequence,10_7,2023-01-10T07:22:15.821Z,,,b,,,90,3133.207999999984,completion,e.jpg,,,227160.09999999404,227085.667,223935.793,224009.5,223952.459,227102.333,
空白時間1 (0.5秒),canvas.Screen,10_8_0,2023-01-10T07:22:16.320Z,,,b,,,270,499.9799999999814,timeout,e.jpg,,,227659.09999999404,227585.647,227085.667,227160.29999998212,227102.333,227602.313,
注視(1秒),canvas.Screen,10_8_1,2023-01-10T07:22:17.320Z,,,b,,,270,999.9599999999919,timeout,e.jpg,,,228658.90000000596,228585.607,227585.647,227659.40000000596,227602.313,228602.273,
空白時間2 (0.5秒),canvas.Screen,10_8_2,2023-01-10T07:22:17.821Z,,,b,,,270,499.9800000000105,timeout,e.jpg,,,229159.40000000596,229085.587,228585.607,228659.19999998808,228602.273,229102.253,
刺激提示,canvas.Screen,10_8_3,2023-01-10T07:22:18.675Z,,,b,true,b,270,905.5469999821216,response,e.jpg,b,keypress(f),230013.59999999404,230007.79999998212,229085.587,229159.79999998212,229102.253,229968.885,
フィードバック(0.5秒),canvas.Screen,10_8_4,2023-01-10T07:22:19.187Z,,,b,,,270,499.9799999999814,timeout,e.jpg,,,230525.79999998212,230452.199,229952.219,230030.09999999404,229968.885,230468.865,
トライアル,flow.Sequence,10_8,2023-01-10T07:22:19.187Z,,,b,,,270,3349.86599999998,completion,e.jpg,,,230526.29999998212,230452.199,227085.667,227160.19999998808,227102.333,230468.865,
空白時間1 (0.5秒),canvas.Screen,10_9_0,2023-01-10T07:22:19.688Z,,,d,,,315,500.54899999999907,timeout,eR.jpg,,,231026.79999998212,230952.748,230452.199,230526.40000000596,230468.865,230969.414,
注視(1秒),canvas.Screen,10_9_1,2023-01-10T07:22:20.687Z,,,d,,,315,999.960000000021,timeout,eR.jpg,,,232026,231952.708,230952.748,231027.19999998808,230969.414,231969.374,
空白時間2 (0.5秒),canvas.Screen,10_9_2,2023-01-10T07:22:21.188Z,,,d,,,315,499.9799999999814,timeout,eR.jpg,,,232526.5,232452.688,231952.708,232026.09999999404,231969.374,232469.354,
刺激提示,canvas.Screen,10_9_3,2023-01-10T07:22:21.830Z,,,d,true,d,315,692.7459999940475,response,eR.jpg,d,keypress(j),233169,233162.09999999404,232452.688,232526.59999999404,232469.354,233102.662,
フィードバック(0.5秒),canvas.Screen,10_9_4,2023-01-10T07:22:22.321Z,,,d,,,315,499.9799999999814,timeout,eR.jpg,,,233659.40000000596,233585.976,233085.996,233171.19999998808,233102.662,233602.642,
トライアル,flow.Sequence,10_9,2023-01-10T07:22:22.321Z,,,d,,,315,3117.1110000000044,completion,eR.jpg,,,233659.90000000596,233585.976,230452.199,230526.40000000596,230468.865,233602.642,
空白時間1 (0.5秒),canvas.Screen,10_10_0,2023-01-10T07:22:22.820Z,,,b,,,225,499.9800000000105,timeout,e.jpg,,,234159.40000000596,234085.956,233585.976,233660.09999999404,233602.642,234102.622,
注視(1秒),canvas.Screen,10_10_1,2023-01-10T07:22:23.821Z,,,b,,,225,999.9599999999919,timeout,e.jpg,,,235160.09999999404,235085.916,234085.956,234159.69999998808,234102.622,235102.582,
空白時間2 (0.5秒),canvas.Screen,10_10_2,2023-01-10T07:22:24.320Z,,,b,,,225,499.9800000000105,timeout,e.jpg,,,235659.19999998808,235585.896,235085.916,235160.5,235102.582,235602.562,
刺激提示,canvas.Screen,10_10_3,2023-01-10T07:22:25.183Z,,,b,true,b,225,913.0379999940342,response,e.jpg,b,keypress(f),236521.90000000596,236515.59999999404,235585.896,235659.69999998808,235602.562,236469.194,
フィードバック(0.5秒),canvas.Screen,10_10_4,2023-01-10T07:22:25.687Z,,,b,,,225,499.9800000000105,timeout,e.jpg,,,237026.29999998212,236952.508,236452.528,236538.90000000596,236469.194,236969.174,
トライアル,flow.Sequence,10_10,2023-01-10T07:22:25.688Z,,,b,,,225,3349.866000000009,completion,e.jpg,,,237026.79999998212,236952.508,233585.976,233660.09999999404,233602.642,236969.174,
空白時間1 (0.5秒),canvas.Screen,10_11_0,2023-01-10T07:22:26.187Z,,,d,,,135,499.9800000000105,timeout,eR.jpg,,,237526.29999998212,237452.488,236952.508,237027.09999999404,236969.174,237469.154,
注視(1秒),canvas.Screen,10_11_1,2023-01-10T07:22:27.187Z,,,d,,,135,999.9599999999919,timeout,eR.jpg,,,238525.90000000596,238452.448,237452.488,237526.79999998212,237469.154,238469.114,
空白時間2 (0.5秒),canvas.Screen,10_11_2,2023-01-10T07:22:27.687Z,,,d,,,135,499.9800000000105,timeout,eR.jpg,,,239026.19999998808,238952.428,238452.448,238526.19999998808,238469.114,238969.094,
刺激提示,canvas.Screen,10_11_3,2023-01-10T07:22:28.938Z,,,d,true,d,135,1301.7059999821067,response,eR.jpg,d,keypress(j),240277.29999998212,240270.79999998212,238952.428,239026.59999999404,238969.094,240235.71,
フィードバック(0.5秒),canvas.Screen,10_11_4,2023-01-10T07:22:29.453Z,,,d,,,135,499.9800000000105,timeout,eR.jpg,,,240792.40000000596,240719.024,240219.044,240293.69999998808,240235.71,240735.69,
トライアル,flow.Sequence,10_11,2023-01-10T07:22:29.454Z,,,d,,,135,3749.850000000006,completion,eR.jpg,,,240792.79999998212,240719.024,236952.508,237027,236969.174,240735.69,
空白時間1 (0.5秒),canvas.Screen,10_12_0,2023-01-10T07:22:29.954Z,,,d,,,45,500.5439999999944,timeout,eR.jpg,,,241293.29999998212,241219.568,240719.024,240793,240735.69,241236.234,
注視(1秒),canvas.Screen,10_12_1,2023-01-10T07:22:30.954Z,,,d,,,45,999.9599999999919,timeout,eR.jpg,,,242292.90000000596,242219.528,241219.568,241293.69999998808,241236.234,242236.194,
空白時間2 (0.5秒),canvas.Screen,10_12_2,2023-01-10T07:22:31.454Z,,,d,,,45,499.9800000000105,timeout,eR.jpg,,,242793,242719.508,242219.528,242293.19999998808,242236.194,242736.174,
刺激提示,canvas.Screen,10_12_3,2023-01-10T07:22:32.164Z,,,d,true,d,45,762.4259999940405,response,eR.jpg,d,keypress(j),243503.19999998808,243498.59999999404,242719.508,242793.59999999404,242736.174,243452.812,
フィードバック(0.5秒),canvas.Screen,10_12_4,2023-01-10T07:22:32.671Z,,,d,,,45,499.9799999999814,timeout,eR.jpg,,,244009.90000000596,243936.126,243436.146,243505.19999998808,243452.812,243952.792,
トライアル,flow.Sequence,10_12,2023-01-10T07:22:32.671Z,,,d,,,45,3200.435999999987,completion,eR.jpg,,,244010.29999998212,243936.126,240719.024,240792.90000000596,240735.69,243952.792,
空白時間1 (0.5秒),canvas.Screen,10_13_0,2023-01-10T07:22:33.170Z,,,b,,,135,499.9800000000105,timeout,e.jpg,,,244509.5,244436.106,243936.126,244010.5,243952.792,244452.772,
注視(1秒),canvas.Screen,10_13_1,2023-01-10T07:22:34.170Z,,,b,,,135,999.9599999999919,timeout,e.jpg,,,245509.29999998212,245436.066,244436.106,244509.90000000596,244452.772,245452.732,
空白時間2 (0.5秒),canvas.Screen,10_13_2,2023-01-10T07:22:34.671Z,,,b,,,135,499.9800000000105,timeout,e.jpg,,,246010.19999998808,245936.046,245436.066,245509.5,245452.732,245952.712,
刺激提示,canvas.Screen,10_13_3,2023-01-10T07:22:35.388Z,,,b,true,b,135,768.5879999821191,response,e.jpg,b,keypress(f),246726.90000000596,246721.29999998212,245936.046,246010.59999999404,245952.712,246686.016,
フィードバック(0.5秒),canvas.Screen,10_13_4,2023-01-10T07:22:35.904Z,,,b,,,135,499.9800000000105,timeout,e.jpg,,,247243,247169.33,246669.35,246742.79999998212,246686.016,247185.996,
トライアル,flow.Sequence,10_13,2023-01-10T07:22:35.904Z,,,b,,,135,3216.5380000000005,completion,e.jpg,,,247243.59999999404,247169.33,243936.126,244010.40000000596,243952.792,247185.996,
空白時間1 (0.5秒),canvas.Screen,10_14_0,2023-01-10T07:22:36.404Z,,,b,,,315,499.9799999999814,timeout,e.jpg,,,247743.19999998808,247669.31,247169.33,247243.79999998212,247185.996,247685.976,
注視(1秒),canvas.Screen,10_14_1,2023-01-10T07:22:37.404Z,,,b,,,315,999.9599999999919,timeout,e.jpg,,,248743.5,248669.27,247669.31,247743.5,247685.976,248685.936,
空白時間2 (0.5秒),canvas.Screen,10_14_2,2023-01-10T07:22:37.904Z,,,b,,,315,499.9800000000105,timeout,e.jpg,,,249243.29999998212,249169.25,248669.27,248743.90000000596,248685.936,249185.916,
刺激提示,canvas.Screen,10_14_3,2023-01-10T07:22:38.652Z,,,b,true,b,315,791.484000005963,response,e.jpg,b,keypress(f),249991.69999998808,249977.40000000596,249169.25,249243.79999998212,249185.916,249935.886,
フィードバック(0.5秒),canvas.Screen,10_14_4,2023-01-10T07:22:39.154Z,,,b,,,315,499.9800000000105,timeout,e.jpg,,,250492.69999998808,250419.2,249919.22,249992.90000000596,249935.886,250435.866,
トライアル,flow.Sequence,10_14,2023-01-10T07:22:39.154Z,,,b,,,315,3233.203999999998,completion,e.jpg,,,250493.09999999404,250419.2,247169.33,247243.69999998808,247185.996,250435.866,
空白時間1 (0.5秒),canvas.Screen,10_15_0,2023-01-10T07:22:39.653Z,,,d,,,90,499.9799999999814,timeout,eR.jpg,,,250992.59999999404,250919.18,250419.2,250493.40000000596,250435.866,250935.846,
注視(1秒),canvas.Screen,10_15_1,2023-01-10T07:22:40.654Z,,,d,,,90,1000.5200000000186,timeout,eR.jpg,,,251993.29999998212,251919.7,250919.18,250993,250935.846,251936.366,
空白時間2 (0.5秒),canvas.Screen,10_15_2,2023-01-10T07:22:41.154Z,,,d,,,90,499.9799999999814,timeout,eR.jpg,,,252493.40000000596,252419.68,251919.7,251993.5,251936.366,252436.346,
刺激提示,canvas.Screen,10_15_3,2023-01-10T07:22:41.812Z,,,d,true,d,90,709.05400000597,response,eR.jpg,d,keypress(j),253151.29999998212,253145.40000000596,252419.68,252494,252436.346,253102.986,
フィードバック(0.5秒),canvas.Screen,10_15_4,2023-01-10T07:22:42.320Z,,,d,,,90,499.9799999999814,timeout,eR.jpg,,,253659.5,253586.3,253086.32,253154.59999999404,253102.986,253602.966,
トライアル,flow.Sequence,10_15,2023-01-10T07:22:42.321Z,,,d,,,90,3150.4339999999793,completion,eR.jpg,,,253659.90000000596,253586.3,250419.2,250493.29999998212,250435.866,253602.966,
タスクのセット,flow.Loop,10,2023-01-10T07:22:42.321Z,,,,,,,55251.155,completion,,,,253660.09999999404,253586.3,198318.479,198393.29999998212,198335.145,253602.966,
空白時間1 (0.5秒),canvas.Screen,11_0_0,2023-01-10T07:22:42.821Z,,,b,,,180,499.9800000000105,timeout,e.jpg,,,254159.90000000596,254086.28,253586.3,253660.40000000596,253602.966,254102.946,
注視(1秒),canvas.Screen,11_0_1,2023-01-10T07:22:43.821Z,,,b,,,180,999.9599999999919,timeout,e.jpg,,,255160.40000000596,255086.24,254086.28,254160.40000000596,254102.946,255102.906,
空白時間2 (0.5秒),canvas.Screen,11_0_2,2023-01-10T07:22:44.320Z,,,b,,,180,499.9800000000105,timeout,e.jpg,,,255659.59999999404,255586.22,255086.24,255160.79999998212,255102.906,255602.886,
刺激提示,canvas.Screen,11_0_3,2023-01-10T07:22:45.638Z,,,b,true,b,180,1352.91399998212,response,e.jpg,b,keypress(f),256977.09999999404,256955.79999998212,255586.22,255659.90000000596,255602.886,256919.5,
フィードバック(0.5秒),canvas.Screen,11_0_4,2023-01-10T07:22:46.138Z,,,b,,,180,499.9800000000105,timeout,e.jpg,,,257477.09999999404,257402.814,256902.834,256978.29999998212,256919.5,257419.48,
トライアル,flow.Sequence,11_0,2023-01-10T07:22:46.138Z,,,b,,,180,3799.8480000000272,completion,e.jpg,,,257477.59999999404,257402.814,253586.3,253660.40000000596,253602.966,257419.48,
空白時間1 (0.5秒),canvas.Screen,11_1_0,2023-01-10T07:22:46.637Z,,,d,,,315,499.9799999999814,timeout,eR.jpg,,,257976.19999998808,257902.794,257402.814,257477.79999998212,257419.48,257919.46,
注視(1秒),canvas.Screen,11_1_1,2023-01-10T07:22:47.637Z,,,d,,,315,999.960000000021,timeout,eR.jpg,,,258975.90000000596,258902.754,257902.794,257976.5,257919.46,258919.42,
空白時間2 (0.5秒),canvas.Screen,11_1_2,2023-01-10T07:22:48.138Z,,,d,,,315,499.9799999999814,timeout,eR.jpg,,,259477,259402.734,258902.754,258976.09999999404,258919.42,259419.4,
刺激提示,canvas.Screen,11_1_3,2023-01-10T07:22:49.009Z,,,d,true,d,315,922.6999999940454,response,eR.jpg,d,keypress(j),260348.09999999404,260342.09999999404,259402.734,259477.40000000596,259419.4,260286.032,
フィードバック(0.5秒),canvas.Screen,11_1_4,2023-01-10T07:22:49.504Z,,,d,,,315,499.9799999999814,timeout,eR.jpg,,,260843.59999999404,260769.346,260269.366,260350.29999998212,260286.032,260786.012,
トライアル,flow.Sequence,11_1,2023-01-10T07:22:49.505Z,,,d,,,315,3349.86599999998,completion,eR.jpg,,,260844,260769.346,257402.814,257477.69999998808,257419.48,260786.012,
空白時間1 (0.5秒),canvas.Screen,11_2_0,2023-01-10T07:22:50.004Z,,,d,,,135,499.9800000000105,timeout,eR.jpg,,,261343,261269.326,260769.346,260844.29999998212,260786.012,261285.992,
注視(1秒),canvas.Screen,11_2_1,2023-01-10T07:22:51.004Z,,,d,,,135,1000.5309999999881,timeout,eR.jpg,,,262343.7999999821,262269.857,261269.326,261343.5,261285.992,262286.523,
空白時間2 (0.5秒),canvas.Screen,11_2_2,2023-01-10T07:22:51.504Z,,,d,,,135,499.9800000000396,timeout,eR.jpg,,,262843.2999999821,262769.837,262269.857,262344.1999999881,262286.523,262786.503,
刺激提示,canvas.Screen,11_2_3,2023-01-10T07:22:52.261Z,,,d,true,d,135,806.7969999820925,response,eR.jpg,d,keypress(j),263600.1999999881,263593.2999999821,262769.837,262843.6999999881,262786.503,263536.473,
フィードバック(0.5秒),canvas.Screen,11_2_4,2023-01-10T07:22:52.754Z,,,d,,,135,499.9799999999814,timeout,eR.jpg,,,264093.6999999881,264019.787,263519.807,263602.1999999881,263536.473,264036.453,
トライアル,flow.Sequence,11_2,2023-01-10T07:22:52.755Z,,,d,,,135,3233.7750000000233,completion,eR.jpg,,,264094.1999999881,264019.787,260769.346,260844.19999998808,260786.012,264036.453,
空白時間1 (0.5秒),canvas.Screen,11_3_0,2023-01-10T07:22:53.254Z,,,b,,,315,499.9800000000396,timeout,e.jpg,,,264592.90000000596,264519.767,264019.787,264094.59999999404,264036.453,264536.433,
注視(1秒),canvas.Screen,11_3_1,2023-01-10T07:22:54.254Z,,,b,,,315,999.9599999999627,timeout,e.jpg,,,265593.5,265519.727,264519.767,264593.2999999821,264536.433,265536.393,
空白時間2 (0.5秒),canvas.Screen,11_3_2,2023-01-10T07:22:54.754Z,,,b,,,315,499.9800000000396,timeout,e.jpg,,,266093.7999999821,266019.707,265519.727,265593.6999999881,265536.393,266036.373,
刺激提示,canvas.Screen,11_3_3,2023-01-10T07:22:55.418Z,,,b,true,b,315,715.4269999820972,response,e.jpg,b,keypress(f),266757.90000000596,266751.7999999821,266019.707,266094.1999999881,266036.373,266719.679,
フィードバック(0.5秒),canvas.Screen,11_3_4,2023-01-10T07:22:55.938Z,,,b,,,315,499.9799999999814,timeout,e.jpg,,,267277.1999999881,267202.993,266703.013,266775.5,266719.679,267219.659,
トライアル,flow.Sequence,11_3,2023-01-10T07:22:55.938Z,,,b,,,315,3166.5400000000373,completion,e.jpg,,,267277.6999999881,267202.993,264019.787,264094.40000000596,264036.453,267219.659,
空白時間1 (0.5秒),canvas.Screen,11_4_0,2023-01-10T07:22:56.437Z,,,d,,,90,499.9800000000396,timeout,eR.jpg,,,267776.40000000596,267702.973,267202.993,267277.90000000596,267219.659,267719.639,
注視(1秒),canvas.Screen,11_4_1,2023-01-10T07:22:57.437Z,,,d,,,90,999.9599999999627,timeout,eR.jpg,,,268776.40000000596,268702.933,267702.973,267776.7999999821,267719.639,268719.599,
空白時間2 (0.5秒),canvas.Screen,11_4_2,2023-01-10T07:22:57.938Z,,,d,,,90,499.9800000000396,timeout,eR.jpg,,,269277.09999999404,269202.913,268702.933,268776.7999999821,268719.599,269219.579,
刺激提示,canvas.Screen,11_4_3,2023-01-10T07:22:58.951Z,,,d,true,d,90,1064.120999988052,response,eR.jpg,d,keypress(j),270290.1999999881,270283.6999999881,269202.913,269277.59999999404,269219.579,270236.205,
フィードバック(0.5秒),canvas.Screen,11_4_4,2023-01-10T07:22:59.454Z,,,d,,,90,499.9799999999814,timeout,eR.jpg,,,270793.90000000596,270719.519,270219.539,270306.2999999821,270236.205,270736.185,
トライアル,flow.Sequence,11_4,2023-01-10T07:22:59.455Z,,,d,,,90,3499.859999999986,completion,eR.jpg,,,270794.40000000596,270719.519,267202.993,267277.6999999881,267219.659,270736.185,
空白時間1 (0.5秒),canvas.Screen,11_5_0,2023-01-10T07:22:59.954Z,,,b,,,225,499.9799999999814,timeout,e.jpg,,,271293.40000000596,271219.499,270719.519,270794.59999999404,270736.185,271236.165,
注視(1秒),canvas.Screen,11_5_1,2023-01-10T07:23:00.954Z,,,b,,,225,999.960000000021,timeout,e.jpg,,,272293.2999999821,272219.459,271219.499,271293.6999999881,271236.165,272236.125,
空白時間2 (0.5秒),canvas.Screen,11_5_2,2023-01-10T07:23:01.453Z,,,b,,,225,500.23100000002887,timeout,e.jpg,,,272793,272719.69,272219.459,272293.7999999821,272236.125,272736.356,
刺激提示,canvas.Screen,11_5_3,2023-01-10T07:23:02.989Z,,,b,true,b,225,1586.1439999999711,response,e.jpg,b,keypress(f),274328.59999999404,274322.5,272719.69,272793.1999999881,272736.356,274286.294,
フィードバック(0.5秒),canvas.Screen,11_5_4,2023-01-10T07:23:03.503Z,,,b,,,225,499.9799999999814,timeout,e.jpg,,,274842.90000000596,274769.608,274269.628,274345.90000000596,274286.294,274786.274,
トライアル,flow.Sequence,11_5,2023-01-10T07:23:03.503Z,,,b,,,225,4033.42300000001,completion,e.jpg,,,274842.90000000596,274769.608,270719.519,270794.59999999404,270736.185,274786.274,
空白時間1 (0.5秒),canvas.Screen,11_6_0,2023-01-10T07:23:04.004Z,,,b,,,0,499.9800000000396,timeout,e.jpg,,,275343.2999999821,275269.588,274769.608,274843,274786.274,275286.254,
注視(1秒),canvas.Screen,11_6_1,2023-01-10T07:23:05.004Z,,,b,,,0,999.9599999999627,timeout,e.jpg,,,276343.59999999404,276269.548,275269.588,275343.59999999404,275286.254,276286.214,
空白時間2 (0.5秒),canvas.Screen,11_6_2,2023-01-10T07:23:05.503Z,,,b,,,0,499.9800000000396,timeout,e.jpg,,,276842.90000000596,276769.528,276269.548,276343.90000000596,276286.214,276786.194,
刺激提示,canvas.Screen,11_6_3,2023-01-10T07:23:06.212Z,,,b,true,b,0,742.3059999999823,response,e.jpg,b,keypress(f),277552.09999999404,277528.5,276769.528,276843.2999999821,276786.194,277486.166,
フィードバック(0.5秒),canvas.Screen,11_6_4,2023-01-10T07:23:06.704Z,,,b,,,0,499.9799999999814,timeout,e.jpg,,,278043.40000000596,277969.48,277469.5,277553,277486.166,277986.146,
トライアル,flow.Sequence,11_6,2023-01-10T07:23:06.704Z,,,b,,,0,3183.2060000000056,completion,e.jpg,,,278043.7999999821,277969.48,274769.608,274843,274786.274,277986.146,
空白時間1 (0.5秒),canvas.Screen,11_7_0,2023-01-10T07:23:07.203Z,,,d,,,0,499.9799999999814,timeout,eR.jpg,,,278543.09999999404,278469.46,277969.48,278044.1999999881,277986.146,278486.126,
注視(1秒),canvas.Screen,11_7_1,2023-01-10T07:23:08.203Z,,,d,,,0,999.960000000021,timeout,eR.jpg,,,279542.7999999821,279469.42,278469.46,278543.2999999821,278486.126,279486.086,
空白時間2 (0.5秒),canvas.Screen,11_7_2,2023-01-10T07:23:08.704Z,,,d,,,0,499.9799999999814,timeout,eR.jpg,,,280043.1999999881,279969.4,279469.42,279543.1999999881,279486.086,279986.066,
刺激提示,canvas.Screen,11_7_3,2023-01-10T07:23:09.440Z,,,d,true,d,0,772.9340000000084,response,eR.jpg,d,keypress(j),280779.40000000596,280759,279969.4,280043.5,279986.066,280719.37,
フィードバック(0.5秒),canvas.Screen,11_7_4,2023-01-10T07:23:09.937Z,,,d,,,0,499.9799999999814,timeout,eR.jpg,,,281276.40000000596,281202.684,280702.704,280780.5,280719.37,281219.35,
トライアル,flow.Sequence,11_7,2023-01-10T07:23:09.937Z,,,d,,,0,3216.5380000000005,completion,eR.jpg,,,281276.90000000596,281202.684,277969.48,278044,277986.146,281219.35,
空白時間1 (0.5秒),canvas.Screen,11_8_0,2023-01-10T07:23:10.437Z,,,d,,,180,499.9800000000396,timeout,eR.jpg,,,281776.90000000596,281702.664,281202.684,281277.1999999881,281219.35,281719.33,
注視(1秒),canvas.Screen,11_8_1,2023-01-10T07:23:11.436Z,,,d,,,180,999.9599999999627,timeout,eR.jpg,,,282775.90000000596,282702.624,281702.664,281777.2999999821,281719.33,282719.29,
空白時間2 (0.5秒),canvas.Screen,11_8_2,2023-01-10T07:23:11.938Z,,,d,,,180,500.90600000001723,timeout,eR.jpg,,,283277.5,283203.53,282702.624,282776.1999999881,282719.29,283220.196,
刺激提示,canvas.Screen,11_8_3,2023-01-10T07:23:14.574Z,,,d,true,d,180,2687.503999988083,response,eR.jpg,d,keypress(j),285913.7999999821,285907.6999999881,283203.53,283277.7999999821,283220.196,285870.09,
フィードバック(0.5秒),canvas.Screen,11_8_4,2023-01-10T07:23:15.088Z,,,d,,,180,499.9799999999814,timeout,eR.jpg,,,286427.5,286353.404,285853.424,285925.1999999881,285870.09,286370.07,
トライアル,flow.Sequence,11_8,2023-01-10T07:23:15.088Z,,,d,,,180,5134.054000000004,completion,eR.jpg,,,286428,286353.404,281202.684,281277.09999999404,281219.35,286370.07,
空白時間1 (0.5秒),canvas.Screen,11_9_0,2023-01-10T07:23:15.587Z,,,b,,,45,499.9799999999814,timeout,e.jpg,,,286927.1999999881,286853.384,286353.404,286428.1999999881,286370.07,286870.05,
注視(1秒),canvas.Screen,11_9_1,2023-01-10T07:23:16.586Z,,,b,,,45,999.960000000021,timeout,e.jpg,,,287926.1999999881,287853.344,286853.384,286927.59999999404,286870.05,287870.01,
空白時間2 (0.5秒),canvas.Screen,11_9_2,2023-01-10T07:23:17.088Z,,,b,,,45,499.9799999999814,timeout,e.jpg,,,288427.40000000596,288353.324,287853.344,287926.59999999404,287870.01,288369.99,
刺激提示,canvas.Screen,11_9_3,2023-01-10T07:23:17.987Z,,,b,true,b,45,951.4100000059698,response,e.jpg,b,keypress(f),289327.09999999404,289321.40000000596,288353.324,288427.7999999821,288369.99,289286.62,
フィードバック(0.5秒),canvas.Screen,11_9_4,2023-01-10T07:23:18.504Z,,,b,,,45,499.9799999999814,timeout,e.jpg,,,289843.2999999821,289769.934,289269.954,289343.09999999404,289286.62,289786.6,
トライアル,flow.Sequence,11_9,2023-01-10T07:23:18.504Z,,,b,,,45,3399.8640000000014,completion,e.jpg,,,289843.5,289769.934,286353.404,286428.09999999404,286370.07,289786.6,
空白時間1 (0.5秒),canvas.Screen,11_10_0,2023-01-10T07:23:19.004Z,,,b,,,90,499.9800000000396,timeout,e.jpg,,,290343.6999999881,290269.914,289769.934,289843.59999999404,289786.6,290286.58,
注視(1秒),canvas.Screen,11_10_1,2023-01-10T07:23:20.003Z,,,b,,,90,999.9599999999627,timeout,e.jpg,,,291343.40000000596,291269.874,290269.914,290344.09999999404,290286.58,291286.54,
空白時間2 (0.5秒),canvas.Screen,11_10_2,2023-01-10T07:23:20.503Z,,,b,,,90,499.9800000000396,timeout,e.jpg,,,291843.09999999404,291769.854,291269.874,291343.6999999881,291286.54,291786.52,
刺激提示,canvas.Screen,11_10_3,2023-01-10T07:23:21.171Z,,,b,true,b,90,721.5799999940209,response,e.jpg,b,keypress(f),292510.7999999821,292508.09999999404,291769.854,291843.59999999404,291786.52,292453.16,
フィードバック(0.5秒),canvas.Screen,11_10_4,2023-01-10T07:23:21.670Z,,,b,,,90,499.9800000000396,timeout,e.jpg,,,293010.2999999821,292936.474,292436.494,292522.7999999821,292453.16,292953.14,
トライアル,flow.Sequence,11_10,2023-01-10T07:23:21.671Z,,,b,,,90,3149.8740000000107,completion,e.jpg,,,293010.6999999881,292936.474,289769.934,289843.59999999404,289786.6,292953.14,
空白時間1 (0.5秒),canvas.Screen,11_11_0,2023-01-10T07:23:22.171Z,,,d,,,225,500.5430000000051,timeout,eR.jpg,,,293510.59999999404,293437.017,292936.474,293011,292953.14,293453.683,
注視(1秒),canvas.Screen,11_11_1,2023-01-10T07:23:23.170Z,,,d,,,225,999.9599999999627,timeout,eR.jpg,,,294510.09999999404,294436.977,293437.017,293510.90000000596,293453.683,294453.643,
空白時間2 (0.5秒),canvas.Screen,11_11_2,2023-01-10T07:23:23.670Z,,,d,,,225,499.9800000000396,timeout,eR.jpg,,,295010,294936.957,294436.977,294510.1999999881,294453.643,294953.623,
刺激提示,canvas.Screen,11_11_3,2023-01-10T07:23:24.954Z,,,d,true,d,225,1334.9769999940181,response,eR.jpg,d,keypress(j),296294.40000000596,296288.59999999404,294936.957,295010.1999999881,294953.623,296253.571,
フィードバック(0.5秒),canvas.Screen,11_11_4,2023-01-10T07:23:25.471Z,,,d,,,225,499.9799999999814,timeout,eR.jpg,,,296811,296736.885,296236.905,296310,296253.571,296753.551,
トライアル,flow.Sequence,11_11,2023-01-10T07:23:25.472Z,,,d,,,225,3783.7449999999953,completion,eR.jpg,,,296811.5,296736.885,292936.474,293010.90000000596,292953.14,296753.551,
空白時間1 (0.5秒),canvas.Screen,11_12_0,2023-01-10T07:23:25.971Z,,,b,,,135,499.9800000000396,timeout,e.jpg,,,297310.7999999821,297236.865,296736.885,296811.7999999821,296753.551,297253.531,
注視(1秒),canvas.Screen,11_12_1,2023-01-10T07:23:26.971Z,,,b,,,135,999.9599999999627,timeout,e.jpg,,,298310.5,298236.825,297236.865,297311.1999999881,297253.531,298253.491,
空白時間2 (0.5秒),canvas.Screen,11_12_2,2023-01-10T07:23:27.470Z,,,b,,,135,499.9800000000396,timeout,e.jpg,,,298810.2999999821,298736.805,298236.825,298310.90000000596,298253.491,298753.471,
刺激提示,canvas.Screen,11_12_3,2023-01-10T07:23:28.221Z,,,b,true,b,135,802.12899999402,response,e.jpg,b,keypress(f),299561.40000000596,299555.59999999404,298736.805,298810.6999999881,298753.471,299503.441,
フィードバック(0.5秒),canvas.Screen,11_12_4,2023-01-10T07:23:28.721Z,,,b,,,135,499.9799999999814,timeout,e.jpg,,,300061,299986.755,299486.775,299563.5,299503.441,300003.421,
トライアル,flow.Sequence,11_12,2023-01-10T07:23:28.722Z,,,b,,,135,3233.204000000027,completion,e.jpg,,,300061.59999999404,299986.755,296736.885,296811.6999999881,296753.551,300003.421,
空白時間1 (0.5秒),canvas.Screen,11_13_0,2023-01-10T07:23:29.220Z,,,d,,,45,499.9800000000396,timeout,eR.jpg,,,300560.1999999881,300486.735,299986.755,300061.7999999821,300003.421,300503.401,
注視(1秒),canvas.Screen,11_13_1,2023-01-10T07:23:30.221Z,,,d,,,45,999.9599999999627,timeout,eR.jpg,,,301560.7999999821,301486.695,300486.735,300560.59999999404,300503.401,301503.361,
空白時間2 (0.5秒),canvas.Screen,11_13_2,2023-01-10T07:23:30.721Z,,,d,,,45,499.9800000000396,timeout,eR.jpg,,,302060.7999999821,301986.675,301486.695,301561.09999999404,301503.361,302003.341,
刺激提示,canvas.Screen,11_13_3,2023-01-10T07:23:31.806Z,,,d,true,d,45,1136.2589999940246,response,eR.jpg,d,keypress(j),303146,303139.59999999404,301986.675,302061.1999999881,302003.341,303103.297,
フィードバック(0.5秒),canvas.Screen,11_13_4,2023-01-10T07:23:32.321Z,,,d,,,45,500.53699999995297,timeout,eR.jpg,,,303660.7999999821,303587.168,303086.631,303159.90000000596,303103.297,303603.834,
トライアル,flow.Sequence,11_13,2023-01-10T07:23:32.321Z,,,d,,,45,3583.747000000032,completion,eR.jpg,,,303661.40000000596,303587.168,299986.755,300061.6999999881,300003.421,303603.834,
空白時間1 (0.5秒),canvas.Screen,11_14_0,2023-01-10T07:23:32.821Z,,,b,,,270,499.9800000000396,timeout,e.jpg,,,304160.90000000596,304087.148,303587.168,303661.59999999404,303603.834,304103.814,
注視(1秒),canvas.Screen,11_14_1,2023-01-10T07:23:33.821Z,,,b,,,270,999.9599999999627,timeout,e.jpg,,,305161.40000000596,305087.108,304087.148,304161.2999999821,304103.814,305103.774,
空白時間2 (0.5秒),canvas.Screen,11_14_2,2023-01-10T07:23:34.320Z,,,b,,,270,499.9800000000396,timeout,e.jpg,,,305660.5,305587.088,305087.108,305161.7999999821,305103.774,305603.754,
刺激提示,canvas.Screen,11_14_3,2023-01-10T07:23:35.062Z,,,b,true,b,270,795.1460000059451,response,e.jpg,b,keypress(f),306402.09999999404,306398.90000000596,305587.088,305661,305603.754,306353.724,
フィードバック(0.5秒),canvas.Screen,11_14_4,2023-01-10T07:23:35.570Z,,,b,,,270,499.9800000000396,timeout,e.jpg,,,306910.40000000596,306837.038,306337.058,306411.40000000596,306353.724,306853.704,
トライアル,flow.Sequence,11_14,2023-01-10T07:23:35.571Z,,,b,,,270,3233.204000000027,completion,e.jpg,,,306910.6999999881,306837.038,303587.168,303661.5,303603.834,306853.704,
空白時間1 (0.5秒),canvas.Screen,11_15_0,2023-01-10T07:23:36.071Z,,,d,,,270,499.9799999999814,timeout,eR.jpg,,,307411.1999999881,307337.018,306837.038,306910.7999999821,306853.704,307353.684,
注視(1秒),canvas.Screen,11_15_1,2023-01-10T07:23:37.070Z,,,d,,,270,999.9599999999627,timeout,eR.jpg,,,308410.2999999821,308336.978,307337.018,307411.6999999881,307353.684,308353.644,
空白時間2 (0.5秒),canvas.Screen,11_15_2,2023-01-10T07:23:37.571Z,,,d,,,270,499.9800000000396,timeout,eR.jpg,,,308911.09999999404,308836.958,308336.978,308410.59999999404,308353.644,308853.624,
刺激提示,canvas.Screen,11_15_3,2023-01-10T07:23:38.418Z,,,d,true,d,270,899.1759999821079,response,eR.jpg,d,keypress(j),309758.2999999821,309752.7999999821,308836.958,308911.5,308853.624,309703.59,
フィードバック(0.5秒),canvas.Screen,11_15_4,2023-01-10T07:23:38.921Z,,,d,,,270,499.9799999999814,timeout,eR.jpg,,,310261.09999999404,310186.904,309686.924,309760.6999999881,309703.59,310203.57,
トライアル,flow.Sequence,11_15,2023-01-10T07:23:38.921Z,,,d,,,270,3333.1999999999534,completion,eR.jpg,,,310261.5,310186.904,306837.038,306910.7999999821,306853.704,310203.57,
タスクのセット,flow.Loop,11,2023-01-10T07:23:38.922Z,,,,,,,56583.937999999995,completion,,,,310261.6999999881,310186.904,253586.3,253660.29999998212,253602.966,310203.57,
空白時間1 (0.5秒),canvas.Screen,12_0_0,2023-01-10T07:23:39.420Z,,,d,,,0,499.9799999999814,timeout,eR.jpg,,,310760.5,310686.884,310186.904,310262,310203.57,310703.55,
注視(1秒),canvas.Screen,12_0_1,2023-01-10T07:23:40.420Z,,,d,,,0,999.960000000021,timeout,eR.jpg,,,311760.40000000596,311686.844,310686.884,310761,310703.55,311703.51,
空白時間2 (0.5秒),canvas.Screen,12_0_2,2023-01-10T07:23:40.920Z,,,d,,,0,499.9799999999814,timeout,eR.jpg,,,312260.1999999881,312186.824,311686.844,311760.6999999881,311703.51,312203.49,
刺激提示,canvas.Screen,12_0_3,2023-01-10T07:23:41.593Z,,,d,true,d,0,726.4100000059698,response,eR.jpg,d,keypress(j),312933.1999999881,312929.90000000596,312186.824,312260.5,312203.49,312886.796,
フィードバック(0.5秒),canvas.Screen,12_0_4,2023-01-10T07:23:42.103Z,,,d,,,0,499.9800000000396,timeout,eR.jpg,,,313443.6999999881,313370.11,312870.13,312945,312886.796,313386.776,
トライアル,flow.Sequence,12_0,2023-01-10T07:23:42.104Z,,,d,,,0,3166.539999999979,completion,eR.jpg,,,313444.09999999404,313370.11,310186.904,310261.90000000596,310203.57,313386.776,
空白時間1 (0.5秒),canvas.Screen,12_1_0,2023-01-10T07:23:42.604Z,,,d,,,270,500.5469999999623,timeout,eR.jpg,,,313943.90000000596,313870.657,313370.11,313444.40000000596,313386.776,313887.323,
注視(1秒),canvas.Screen,12_1_1,2023-01-10T07:23:43.604Z,,,d,,,270,999.960000000021,timeout,eR.jpg,,,314944.1999999881,314870.617,313870.657,313944.1999999881,313887.323,314887.283,
空白時間2 (0.5秒),canvas.Screen,12_1_2,2023-01-10T07:23:44.105Z,,,d,,,270,499.9799999999814,timeout,eR.jpg,,,315444.6999999881,315370.597,314870.617,314944.59999999404,314887.283,315387.263,
刺激提示,canvas.Screen,12_1_3,2023-01-10T07:23:44.754Z,,,d,true,d,270,701.5369999821414,response,eR.jpg,d,keypress(j),316093.7999999821,316088.7999999821,315370.597,315445.2999999821,315387.263,316037.237,
フィードバック(0.5秒),canvas.Screen,12_1_4,2023-01-10T07:23:45.254Z,,,d,,,270,499.9799999999814,timeout,eR.jpg,,,316594,316520.551,316020.571,316106.6999999881,316037.237,316537.217,
トライアル,flow.Sequence,12_1,2023-01-10T07:23:45.254Z,,,d,,,270,3133.774999999965,completion,eR.jpg,,,316594.40000000596,316520.551,313370.11,313444.2999999821,313386.776,316537.217,
空白時間1 (0.5秒),canvas.Screen,12_2_0,2023-01-10T07:23:45.754Z,,,d,,,225,499.9799999999814,timeout,eR.jpg,,,317094,317020.531,316520.551,316594.6999999881,316537.217,317037.197,
注視(1秒),canvas.Screen,12_2_1,2023-01-10T07:23:46.754Z,,,d,,,225,999.960000000021,timeout,eR.jpg,,,318093.90000000596,318020.491,317020.531,317094.40000000596,317037.197,318037.157,
空白時間2 (0.5秒),canvas.Screen,12_2_2,2023-01-10T07:23:47.254Z,,,d,,,225,499.9799999999814,timeout,eR.jpg,,,318594.5,318520.471,318020.491,318094.40000000596,318037.157,318537.137,
刺激提示,canvas.Screen,12_2_3,2023-01-10T07:23:48.126Z,,,d,true,d,225,922.9629999940516,response,eR.jpg,d,keypress(j),319465.90000000596,319460.09999999404,318520.471,318595,318537.137,319403.769,
フィードバック(0.5秒),canvas.Screen,12_2_4,2023-01-10T07:23:48.621Z,,,d,,,225,499.9800000000396,timeout,eR.jpg,,,319960.90000000596,319887.083,319387.103,319467.7999999821,319403.769,319903.749,
トライアル,flow.Sequence,12_2,2023-01-10T07:23:48.621Z,,,d,,,225,3349.86599999998,completion,eR.jpg,,,319961.40000000596,319887.083,316520.551,316594.59999999404,316537.217,319903.749,
空白時間1 (0.5秒),canvas.Screen,12_3_0,2023-01-10T07:23:49.120Z,,,b,,,180,499.9799999999814,timeout,e.jpg,,,320460.59999999404,320387.063,319887.083,319961.59999999404,319903.749,320403.729,
注視(1秒),canvas.Screen,12_3_1,2023-01-10T07:23:50.120Z,,,b,,,180,999.960000000021,timeout,e.jpg,,,321460.6999999881,321387.023,320387.063,320461.09999999404,320403.729,321403.689,
空白時間2 (0.5秒),canvas.Screen,12_3_2,2023-01-10T07:23:50.620Z,,,b,,,180,499.9799999999814,timeout,e.jpg,,,321960.59999999404,321887.003,321387.023,321461,321403.689,321903.669,
刺激提示,canvas.Screen,12_3_3,2023-01-10T07:23:52.851Z,,,b,false,b,180,2281.630999982124,response,e.jpg,d,keypress(j),324191.2999999821,324185.2999999821,321887.003,321961,321903.669,324153.579,
フィードバック(0.5秒),canvas.Screen,12_3_4,2023-01-10T07:23:53.371Z,,,b,,,180,500.5679999999702,timeout,e.jpg,,,324711.1999999881,324637.481,324136.913,324210,324153.579,324654.147,
トライアル,flow.Sequence,12_3,2023-01-10T07:23:53.371Z,,,b,,,180,4733.732000000018,completion,e.jpg,,,324711.59999999404,324637.481,319887.083,319961.5,319903.749,324654.147,
空白時間1 (0.5秒),canvas.Screen,12_4_0,2023-01-10T07:23:53.871Z,,,d,,,180,499.9799999999814,timeout,eR.jpg,,,325211.59999999404,325137.461,324637.481,324711.7999999821,324654.147,325154.127,
注視(1秒),canvas.Screen,12_4_1,2023-01-10T07:23:54.871Z,,,d,,,180,999.960000000021,timeout,eR.jpg,,,326211,326137.421,325137.461,325211.90000000596,325154.127,326154.087,
空白時間2 (0.5秒),canvas.Screen,12_4_2,2023-01-10T07:23:55.371Z,,,d,,,180,499.9799999999814,timeout,eR.jpg,,,326711.09999999404,326637.401,326137.421,326211.40000000596,326154.087,326654.067,
刺激提示,canvas.Screen,12_4_3,2023-01-10T07:23:56.851Z,,,d,true,d,180,1532.8330000059796,response,eR.jpg,d,keypress(j),328191.90000000596,328186.90000000596,326637.401,326711.59999999404,326654.067,328137.341,
フィードバック(0.5秒),canvas.Screen,12_4_4,2023-01-10T07:23:57.354Z,,,d,,,180,499.9799999999814,timeout,eR.jpg,,,328694.2999999821,328620.655,328120.675,328205.6999999881,328137.341,328637.321,
トライアル,flow.Sequence,12_4,2023-01-10T07:23:57.354Z,,,d,,,180,3966.5080000000307,completion,eR.jpg,,,328694.6999999881,328620.655,324637.481,324711.7999999821,324654.147,328637.321,
空白時間1 (0.5秒),canvas.Screen,12_5_0,2023-01-10T07:23:57.853Z,,,d,,,135,499.9799999999814,timeout,eR.jpg,,,329193.7999999821,329120.635,328620.655,328694.90000000596,328637.321,329137.301,
注視(1秒),canvas.Screen,12_5_1,2023-01-10T07:23:58.854Z,,,d,,,135,999.960000000021,timeout,eR.jpg,,,330194.1999999881,330120.595,329120.635,329194.09999999404,329137.301,330137.261,
空白時間2 (0.5秒),canvas.Screen,12_5_2,2023-01-10T07:23:59.353Z,,,d,,,135,499.9799999999814,timeout,eR.jpg,,,330693.90000000596,330620.575,330120.595,330194.6999999881,330137.261,330637.241,
刺激提示,canvas.Screen,12_5_3,2023-01-10T07:24:00.823Z,,,d,true,d,135,1507.458999988099,response,eR.jpg,d,keypress(j),332163.5,332144.6999999881,330620.575,330694.40000000596,330637.241,332103.849,
フィードバック(0.5秒),canvas.Screen,12_5_4,2023-01-10T07:24:01.320Z,,,d,,,135,499.9800000000396,timeout,eR.jpg,,,332660.40000000596,332587.163,332087.183,332164.7999999821,332103.849,332603.829,
トライアル,flow.Sequence,12_5,2023-01-10T07:24:01.320Z,,,d,,,135,3949.842000000004,completion,eR.jpg,,,332660.90000000596,332587.163,328620.655,328694.7999999821,328637.321,332603.829,
空白時間1 (0.5秒),canvas.Screen,12_6_0,2023-01-10T07:24:01.820Z,,,b,,,0,499.9799999999814,timeout,e.jpg,,,333160.40000000596,333087.143,332587.163,332661.09999999404,332603.829,333103.809,
注視(1秒),canvas.Screen,12_6_1,2023-01-10T07:24:02.820Z,,,b,,,0,999.9599999999627,timeout,e.jpg,,,334160.59999999404,334087.103,333087.143,333160.7999999821,333103.809,334103.769,
空白時間2 (0.5秒),canvas.Screen,12_6_2,2023-01-10T07:24:03.321Z,,,b,,,0,499.9800000000396,timeout,e.jpg,,,334661.1999999881,334587.083,334087.103,334161,334103.769,334603.749,
刺激提示,canvas.Screen,12_6_3,2023-01-10T07:24:04.045Z,,,b,true,b,0,776.6510000059498,response,e.jpg,b,keypress(f),335385.09999999404,335380.40000000596,334587.083,334661.59999999404,334603.749,335320.966,
フィードバック(0.5秒),canvas.Screen,12_6_4,2023-01-10T07:24:04.538Z,,,b,,,0,499.9799999999814,timeout,e.jpg,,,335878.40000000596,335804.28,335304.3,335388.2999999821,335320.966,335820.946,
トライアル,flow.Sequence,12_6,2023-01-10T07:24:04.538Z,,,b,,,0,3200.451000000001,completion,e.jpg,,,335878.90000000596,335804.28,332587.163,332661.09999999404,332603.829,335820.946,
空白時間1 (0.5秒),canvas.Screen,12_7_0,2023-01-10T07:24:05.036Z,,,d,,,90,499.9799999999814,timeout,eR.jpg,,,336377,336304.26,335804.28,335879.1999999881,335820.946,336320.926,
注視(1秒),canvas.Screen,12_7_1,2023-01-10T07:24:06.038Z,,,d,,,90,999.960000000021,timeout,eR.jpg,,,337378.1999999881,337304.22,336304.26,336377.2999999821,336320.926,337320.886,
空白時間2 (0.5秒),canvas.Screen,12_7_2,2023-01-10T07:24:06.537Z,,,d,,,90,499.9799999999814,timeout,eR.jpg,,,337877.5,337804.2,337304.22,337378.40000000596,337320.886,337820.866,
刺激提示,canvas.Screen,12_7_3,2023-01-10T07:24:07.255Z,,,d,true,d,90,768.5340000059805,response,eR.jpg,d,keypress(j),338595.5,338589.40000000596,337804.2,337877.7999999821,337820.866,338554.17,
フィードバック(0.5秒),canvas.Screen,12_7_4,2023-01-10T07:24:07.770Z,,,d,,,90,499.9800000000396,timeout,eR.jpg,,,339110.90000000596,339037.484,338537.504,338611.90000000596,338554.17,339054.15,
トライアル,flow.Sequence,12_7,2023-01-10T07:24:07.771Z,,,d,,,90,3216.5380000000005,completion,eR.jpg,,,339111.2999999821,339037.484,335804.28,335879,335820.946,339054.15,
空白時間1 (0.5秒),canvas.Screen,12_8_0,2023-01-10T07:24:08.271Z,,,b,,,315,499.9799999999814,timeout,e.jpg,,,339611.09999999404,339537.464,339037.484,339111.59999999404,339054.15,339554.13,
注視(1秒),canvas.Screen,12_8_1,2023-01-10T07:24:09.271Z,,,b,,,315,999.960000000021,timeout,e.jpg,,,340611.1999999881,340537.424,339537.464,339611.5,339554.13,340554.09,
空白時間2 (0.5秒),canvas.Screen,12_8_2,2023-01-10T07:24:09.770Z,,,b,,,315,499.9799999999814,timeout,e.jpg,,,341110.7999999821,341037.404,340537.424,340611.59999999404,340554.09,341054.07,
刺激提示,canvas.Screen,12_8_3,2023-01-10T07:24:10.398Z,,,b,true,b,315,678.1299999880721,response,e.jpg,b,keypress(f),341738.2999999821,341732.1999999881,341037.404,341112.09999999404,341054.07,341670.712,
フィードバック(0.5秒),canvas.Screen,12_8_4,2023-01-10T07:24:10.887Z,,,b,,,315,499.9799999999814,timeout,e.jpg,,,342227.59999999404,342154.026,341654.046,341740.5,341670.712,342170.692,
トライアル,flow.Sequence,12_8,2023-01-10T07:24:10.888Z,,,b,,,315,3099.8759999999893,completion,e.jpg,,,342228.1999999881,342154.026,339037.484,339111.40000000596,339054.15,342170.692,
空白時間1 (0.5秒),canvas.Screen,12_9_0,2023-01-10T07:24:11.387Z,,,b,,,135,499.9800000000396,timeout,e.jpg,,,342727.90000000596,342654.006,342154.026,342228.40000000596,342170.692,342670.672,
注視(1秒),canvas.Screen,12_9_1,2023-01-10T07:24:12.387Z,,,b,,,135,999.9599999999627,timeout,e.jpg,,,343727.40000000596,343653.966,342654.006,342728.2999999821,342670.672,343670.632,
空白時間2 (0.5秒),canvas.Screen,12_9_2,2023-01-10T07:24:12.887Z,,,b,,,135,499.9800000000396,timeout,e.jpg,,,344228.09999999404,344153.946,343653.966,343727.6999999881,343670.632,344170.612,
刺激提示,canvas.Screen,12_9_3,2023-01-10T07:24:13.709Z,,,b,true,b,135,872.6879999820958,response,e.jpg,b,keypress(f),345049.59999999404,345043.2999999821,344153.946,344228.59999999404,344170.612,345003.912,
フィードバック(0.5秒),canvas.Screen,12_9_4,2023-01-10T07:24:14.221Z,,,b,,,135,500.55199999996694,timeout,e.jpg,,,345561.7999999821,345487.798,344987.246,345066.59999999404,345003.912,345504.464,
トライアル,flow.Sequence,12_9,2023-01-10T07:24:14.222Z,,,b,,,135,3317.106000000029,completion,e.jpg,,,345562.2999999821,345487.798,342154.026,342228.40000000596,342170.692,345504.464,
空白時間1 (0.5秒),canvas.Screen,12_10_0,2023-01-10T07:24:14.721Z,,,d,,,315,499.9800000000396,timeout,eR.jpg,,,346061.59999999404,345987.778,345487.798,345562.59999999404,345504.464,346004.444,
注視(1秒),canvas.Screen,12_10_1,2023-01-10T07:24:15.721Z,,,d,,,315,999.9599999999627,timeout,eR.jpg,,,347061.2999999821,346987.738,345987.778,346061.7999999821,346004.444,347004.404,
空白時間2 (0.5秒),canvas.Screen,12_10_2,2023-01-10T07:24:16.221Z,,,d,,,315,499.9800000000396,timeout,eR.jpg,,,347561.90000000596,347487.718,346987.738,347061.6999999881,347004.404,347504.384,
刺激提示,canvas.Screen,12_10_3,2023-01-10T07:24:16.972Z,,,d,true,d,315,804.815999988059,response,eR.jpg,d,keypress(j),348313.09999999404,348309.1999999881,347487.718,347562.40000000596,347504.384,348271.02,
フィードバック(0.5秒),canvas.Screen,12_10_4,2023-01-10T07:24:17.487Z,,,d,,,315,499.9799999999814,timeout,eR.jpg,,,348827.59999999404,348754.334,348254.354,348332.09999999404,348271.02,348771,
トライアル,flow.Sequence,12_10,2023-01-10T07:24:17.488Z,,,d,,,315,3249.8699999999953,completion,eR.jpg,,,348828.40000000596,348754.334,345487.798,345562.5,345504.464,348771,
空白時間1 (0.5秒),canvas.Screen,12_11_0,2023-01-10T07:24:17.988Z,,,d,,,45,499.9799999999814,timeout,eR.jpg,,,349328.2999999821,349254.314,348754.334,348828.59999999404,348771,349270.98,
注視(1秒),canvas.Screen,12_11_1,2023-01-10T07:24:18.987Z,,,d,,,45,999.960000000021,timeout,eR.jpg,,,350328.1999999881,350254.274,349254.314,349328.59999999404,349270.98,350270.94,
空白時間2 (0.5秒),canvas.Screen,12_11_2,2023-01-10T07:24:19.487Z,,,d,,,45,499.9799999999814,timeout,eR.jpg,,,350828,350754.254,350254.274,350328.59999999404,350270.94,350770.92,
刺激提示,canvas.Screen,12_11_3,2023-01-10T07:24:20.185Z,,,d,true,d,45,729.8799999821349,response,eR.jpg,d,keypress(j),351525.2999999821,351500.7999999821,350754.254,350828.40000000596,350770.92,351470.892,
フィードバック(0.5秒),canvas.Screen,12_11_4,2023-01-10T07:24:20.687Z,,,d,,,45,499.9799999999814,timeout,eR.jpg,,,352027.5,351954.206,351454.226,351526.2999999821,351470.892,351970.872,
トライアル,flow.Sequence,12_11,2023-01-10T07:24:20.687Z,,,d,,,45,3183.2060000000056,completion,eR.jpg,,,352027.7999999821,351954.206,348754.334,348828.5,348771,351970.872,
空白時間1 (0.5秒),canvas.Screen,12_12_0,2023-01-10T07:24:21.187Z,,,b,,,90,499.9800000000396,timeout,e.jpg,,,352527.90000000596,352454.186,351954.206,352028,351970.872,352470.852,
注視(1秒),canvas.Screen,12_12_1,2023-01-10T07:24:22.187Z,,,b,,,90,999.9599999999627,timeout,e.jpg,,,353528.2999999821,353454.146,352454.186,352528.1999999881,352470.852,353470.812,
空白時間2 (0.5秒),canvas.Screen,12_12_2,2023-01-10T07:24:22.686Z,,,b,,,90,499.9800000000396,timeout,e.jpg,,,354027.1999999881,353954.126,353454.146,353528.6999999881,353470.812,353970.792,
刺激提示,canvas.Screen,12_12_3,2023-01-10T07:24:23.221Z,,,b,true,b,90,584.5079999821028,response,e.jpg,b,keypress(f),354561.59999999404,354555.2999999821,353954.126,354027.40000000596,353970.792,354520.77,
フィードバック(0.5秒),canvas.Screen,12_12_4,2023-01-10T07:24:23.736Z,,,b,,,90,499.9799999999814,timeout,e.jpg,,,355076.5,355004.084,354504.104,354578,354520.77,355020.75,
トライアル,flow.Sequence,12_12,2023-01-10T07:24:23.736Z,,,b,,,90,3033.2119999999995,completion,e.jpg,,,355076.90000000596,355004.084,351954.206,352028,351970.872,355020.75,
空白時間1 (0.5秒),canvas.Screen,12_13_0,2023-01-10T07:24:24.237Z,,,b,,,270,499.9799999999814,timeout,e.jpg,,,355577.7999999821,355504.064,355004.084,355077.09999999404,355020.75,355520.73,
注視(1秒),canvas.Screen,12_13_1,2023-01-10T07:24:25.237Z,,,b,,,270,999.960000000021,timeout,e.jpg,,,356577.40000000596,356504.024,355504.064,355578.2999999821,355520.73,356520.69,
空白時間2 (0.5秒),canvas.Screen,12_13_2,2023-01-10T07:24:25.737Z,,,b,,,270,499.9799999999814,timeout,e.jpg,,,357078.09999999404,357004.004,356504.024,356577.59999999404,356520.69,357020.67,
刺激提示,canvas.Screen,12_13_3,2023-01-10T07:24:26.387Z,,,b,true,b,270,701.0299999880954,response,e.jpg,b,keypress(f),357727.5,357721.6999999881,357004.004,357078.59999999404,357020.67,357670.644,
フィードバック(0.5秒),canvas.Screen,12_13_4,2023-01-10T07:24:26.887Z,,,b,,,270,499.9800000000396,timeout,e.jpg,,,358227.7999999821,358153.958,357653.978,357729.59999999404,357670.644,358170.624,
トライアル,flow.Sequence,12_13,2023-01-10T07:24:26.887Z,,,b,,,270,3133.207999999984,completion,e.jpg,,,358228.2999999821,358153.958,355004.084,355077,355020.75,358170.624,
空白時間1 (0.5秒),canvas.Screen,12_14_0,2023-01-10T07:24:27.387Z,,,b,,,225,499.9799999999814,timeout,e.jpg,,,358727.59999999404,358653.938,358153.958,358228.5,358170.624,358670.604,
注視(1秒),canvas.Screen,12_14_1,2023-01-10T07:24:28.386Z,,,b,,,225,999.960000000021,timeout,e.jpg,,,359727.1999999881,359653.898,358653.938,358728,358670.604,359670.564,
空白時間2 (0.5秒),canvas.Screen,12_14_2,2023-01-10T07:24:28.887Z,,,b,,,225,499.9799999999814,timeout,e.jpg,,,360227.6999999881,360153.878,359653.898,359727.59999999404,359670.564,360170.544,
刺激提示,canvas.Screen,12_14_3,2023-01-10T07:24:29.938Z,,,b,true,b,225,1102.2559999821242,response,e.jpg,b,keypress(f),361278.59999999404,361272.7999999821,360153.878,360228.09999999404,360170.544,361237.168,
フィードバック(0.5秒),canvas.Screen,12_14_4,2023-01-10T07:24:30.454Z,,,b,,,225,499.9799999999814,timeout,e.jpg,,,361794.5,361720.482,361220.502,361295.2999999821,361237.168,361737.148,
トライアル,flow.Sequence,12_14,2023-01-10T07:24:30.454Z,,,b,,,225,3549.8580000000075,completion,e.jpg,,,361795,361720.482,358153.958,358228.40000000596,358170.624,361737.148,
空白時間1 (0.5秒),canvas.Screen,12_15_0,2023-01-10T07:24:30.953Z,,,b,,,45,499.9800000000396,timeout,e.jpg,,,362294,362220.462,361720.482,361795.1999999881,361737.148,362237.128,
注視(1秒),canvas.Screen,12_15_1,2023-01-10T07:24:31.953Z,,,b,,,45,999.9599999999627,timeout,e.jpg,,,363294.2999999821,363220.422,362220.462,362294.40000000596,362237.128,363237.088,
空白時間2 (0.5秒),canvas.Screen,12_15_2,2023-01-10T07:24:32.453Z,,,b,,,45,499.9800000000396,timeout,e.jpg,,,363794.09999999404,363720.402,363220.422,363294.7999999821,363237.088,363737.068,
刺激提示,canvas.Screen,12_15_3,2023-01-10T07:24:33.117Z,,,b,true,b,45,714.5319999940111,response,e.jpg,b,keypress(f),364457.7999999821,364451.59999999404,363720.402,363794.5,363737.068,364403.708,
フィードバック(0.5秒),canvas.Screen,12_15_4,2023-01-10T07:24:33.620Z,,,b,,,45,499.9800000000396,timeout,e.jpg,,,364961,364887.022,364387.042,364474.1999999881,364403.708,364903.688,
トライアル,flow.Sequence,12_15,2023-01-10T07:24:33.620Z,,,b,,,45,3149.8740000000107,completion,e.jpg,,,364961.40000000596,364887.022,361720.482,361795.09999999404,361737.148,364903.688,
タスクのセット,flow.Loop,12,2023-01-10T07:24:33.621Z,,,,,,,54683.45199999999,completion,,,,364961.59999999404,364887.022,310186.904,310261.90000000596,310203.57,364903.688,
空白時間1 (0.5秒),canvas.Screen,13_0_0,2023-01-10T07:24:34.120Z,,,d,,,225,499.9799999999814,timeout,eR.jpg,,,365460.59999999404,365387.002,364887.022,364961.7999999821,364903.688,365403.668,
注視(1秒),canvas.Screen,13_0_1,2023-01-10T07:24:35.121Z,,,d,,,225,1001.0829999999842,timeout,eR.jpg,,,366461.90000000596,366388.085,365387.002,365461.09999999404,365403.668,366404.751,
空白時間2 (0.5秒),canvas.Screen,13_0_2,2023-01-10T07:24:35.621Z,,,d,,,225,499.9800000000396,timeout,eR.jpg,,,366962.2999999821,366888.065,366388.085,366462.1999999881,366404.751,366904.731,
刺激提示,canvas.Screen,13_0_3,2023-01-10T07:24:36.319Z,,,d,true,d,225,748.7689999999711,response,eR.jpg,d,keypress(j),367659.59999999404,367653.5,366888.065,366962.5,366904.731,367604.703,
フィードバック(0.5秒),canvas.Screen,13_0_4,2023-01-10T07:24:36.820Z,,,d,,,225,499.9800000000396,timeout,eR.jpg,,,368161.1999999881,368088.017,367588.037,367661.7999999821,367604.703,368104.683,
トライアル,flow.Sequence,13_0,2023-01-10T07:24:36.820Z,,,d,,,225,3184.328999999969,completion,eR.jpg,,,368161.5,368088.017,364887.022,364961.7999999821,364903.688,368104.683,
空白時間1 (0.5秒),canvas.Screen,13_1_0,2023-01-10T07:24:37.320Z,,,b,,,270,499.9799999999814,timeout,e.jpg,,,368660.6999999881,368587.997,368088.017,368161.59999999404,368104.683,368604.663,
注視(1秒),canvas.Screen,13_1_1,2023-01-10T07:24:38.321Z,,,b,,,270,999.960000000021,timeout,e.jpg,,,369661.6999999881,369587.957,368587.997,368660.7999999821,368604.663,369604.623,
空白時間2 (0.5秒),canvas.Screen,13_1_2,2023-01-10T07:24:38.820Z,,,b,,,270,499.9799999999814,timeout,e.jpg,,,370160.59999999404,370087.937,369587.957,369662.09999999404,369604.623,370104.603,
刺激提示,canvas.Screen,13_1_3,2023-01-10T07:24:39.348Z,,,b,true,b,270,578.6969999821158,response,e.jpg,b,keypress(f),370689.2999999821,370683.2999999821,370087.937,370160.90000000596,370104.603,370637.915,
フィードバック(0.5秒),canvas.Screen,13_1_4,2023-01-10T07:24:39.854Z,,,b,,,270,499.9800000000396,timeout,e.jpg,,,371195.09999999404,371121.229,370621.249,370704.59999999404,370637.915,371137.895,
トライアル,flow.Sequence,13_1,2023-01-10T07:24:39.854Z,,,b,,,270,3016.545999999973,completion,e.jpg,,,371195.5,371121.229,368088.017,368161.5,368104.683,371137.895,
空白時間1 (0.5秒),canvas.Screen,13_2_0,2023-01-10T07:24:40.354Z,,,d,,,45,499.9799999999814,timeout,eR.jpg,,,371694.59999999404,371621.209,371121.229,371195.6999999881,371137.895,371637.875,
注視(1秒),canvas.Screen,13_2_1,2023-01-10T07:24:41.354Z,,,d,,,45,999.960000000021,timeout,eR.jpg,,,372695.5,372621.169,371621.209,371695.09999999404,371637.875,372637.835,
空白時間2 (0.5秒),canvas.Screen,13_2_2,2023-01-10T07:24:41.854Z,,,d,,,45,499.9799999999814,timeout,eR.jpg,,,373194.6999999881,373121.149,372621.169,372695.90000000596,372637.835,373137.815,
刺激提示,canvas.Screen,13_2_3,2023-01-10T07:24:42.353Z,,,d,true,d,45,550.7849999940372,response,eR.jpg,d,keypress(j),373694.1999999881,373688.59999999404,373121.149,373195.09999999404,373137.815,373637.795,
フィードバック(0.5秒),canvas.Screen,13_2_4,2023-01-10T07:24:42.854Z,,,d,,,45,499.9800000000396,timeout,eR.jpg,,,374194.90000000596,374121.109,373621.129,373695.90000000596,373637.795,374137.775,
トライアル,flow.Sequence,13_2,2023-01-10T07:24:42.854Z,,,d,,,45,2983.213999999978,completion,eR.jpg,,,374195.40000000596,374121.109,371121.229,371195.59999999404,371137.895,374137.775,
空白時間1 (0.5秒),canvas.Screen,13_3_0,2023-01-10T07:24:43.354Z,,,d,,,0,499.9799999999814,timeout,eR.jpg,,,374695.1999999881,374621.089,374121.109,374195.6999999881,374137.775,374637.755,
注視(1秒),canvas.Screen,13_3_1,2023-01-10T07:24:44.354Z,,,d,,,0,999.960000000021,timeout,eR.jpg,,,375695.09999999404,375621.049,374621.089,374695.6999999881,374637.755,375637.715,
空白時間2 (0.5秒),canvas.Screen,13_3_2,2023-01-10T07:24:44.854Z,,,d,,,0,500.54099999996834,timeout,eR.jpg,,,376195.2999999821,376121.59,375621.049,375695.5,375637.715,376138.256,
刺激提示,canvas.Screen,13_3_3,2023-01-10T07:24:45.405Z,,,d,true,d,0,601.8439999940456,response,eR.jpg,d,keypress(j),376745.90000000596,376740.09999999404,376121.59,376195.5,376138.256,376704.9,
フィードバック(0.5秒),canvas.Screen,13_3_4,2023-01-10T07:24:45.920Z,,,d,,,0,499.9799999999814,timeout,eR.jpg,,,377261.2999999821,377188.214,376688.234,376760.7999999821,376704.9,377204.88,
トライアル,flow.Sequence,13_3,2023-01-10T07:24:45.921Z,,,d,,,0,3050.438999999955,completion,eR.jpg,,,377261.6999999881,377188.214,374121.109,374195.5,374137.775,377204.88,
空白時間1 (0.5秒),canvas.Screen,13_4_0,2023-01-10T07:24:46.420Z,,,b,,,45,499.9799999999814,timeout,e.jpg,,,377760.90000000596,377688.194,377188.214,377261.90000000596,377204.88,377704.86,
注視(1秒),canvas.Screen,13_4_1,2023-01-10T07:24:47.420Z,,,b,,,45,999.960000000021,timeout,e.jpg,,,378761.40000000596,378688.154,377688.194,377761.2999999821,377704.86,378704.82,
空白時間2 (0.5秒),canvas.Screen,13_4_2,2023-01-10T07:24:47.920Z,,,b,,,45,499.9799999999814,timeout,e.jpg,,,379261.5,379188.134,378688.154,378761.7999999821,378704.82,379204.8,
刺激提示,canvas.Screen,13_4_3,2023-01-10T07:24:48.645Z,,,b,true,b,45,775.9999999821302,response,e.jpg,b,keypress(f),379986.5,379980.7999999821,379188.134,379261.90000000596,379204.8,379921.438,
フィードバック(0.5秒),canvas.Screen,13_4_4,2023-01-10T07:24:49.137Z,,,b,,,45,499.9799999999814,timeout,e.jpg,,,380478.1999999881,380404.752,379904.772,379989.1999999881,379921.438,380421.418,
トライアル,flow.Sequence,13_4,2023-01-10T07:24:49.137Z,,,b,,,45,3199.871999999974,completion,e.jpg,,,380478.6999999881,380404.752,377188.214,377261.90000000596,377204.88,380421.418,
空白時間1 (0.5秒),canvas.Screen,13_5_0,2023-01-10T07:24:49.638Z,,,d,,,180,499.9799999999814,timeout,eR.jpg,,,380979,380904.732,380404.752,380478.90000000596,380421.418,380921.398,
注視(1秒),canvas.Screen,13_5_1,2023-01-10T07:24:50.637Z,,,d,,,180,999.960000000021,timeout,eR.jpg,,,381978.59999999404,381904.692,380904.732,380979.40000000596,380921.398,381921.358,
空白時間2 (0.5秒),canvas.Screen,13_5_2,2023-01-10T07:24:51.137Z,,,d,,,180,499.9799999999814,timeout,eR.jpg,,,382478.40000000596,382404.672,381904.692,381978.90000000596,381921.358,382421.338,
刺激提示,canvas.Screen,13_5_3,2023-01-10T07:24:53.505Z,,,d,true,d,180,2418.3619999880902,response,eR.jpg,d,keypress(j),384845.90000000596,384839.6999999881,382404.672,382478.5,382421.338,384804.576,
フィードバック(0.5秒),canvas.Screen,13_5_4,2023-01-10T07:24:54.020Z,,,d,,,180,499.9799999999814,timeout,eR.jpg,,,385361.59999999404,385287.89,384787.91,384862.5,384804.576,385304.556,
トライアル,flow.Sequence,13_5,2023-01-10T07:24:54.021Z,,,d,,,180,4866.472000000009,completion,eR.jpg,,,385362,385287.89,380404.752,380478.90000000596,380421.418,385304.556,
空白時間1 (0.5秒),canvas.Screen,13_6_0,2023-01-10T07:24:54.520Z,,,d,,,135,499.9800000000396,timeout,eR.jpg,,,385861.09999999404,385787.87,385287.89,385362.1999999881,385304.556,385804.536,
注視(1秒),canvas.Screen,13_6_1,2023-01-10T07:24:55.521Z,,,d,,,135,1000.5199999999604,timeout,eR.jpg,,,386861.7999999821,386788.39,385787.87,385861.5,385804.536,386805.056,
空白時間2 (0.5秒),canvas.Screen,13_6_2,2023-01-10T07:24:56.020Z,,,d,,,135,499.9800000000396,timeout,eR.jpg,,,387361.6999999881,387288.37,386788.39,386862.1999999881,386805.056,387305.036,
刺激提示,canvas.Screen,13_6_3,2023-01-10T07:24:58.031Z,,,d,true,d,135,2061.8640000059386,response,eR.jpg,d,keypress(j),389372.7999999821,389366.90000000596,387288.37,387362,387305.036,389321.622,
フィードバック(0.5秒),canvas.Screen,13_6_4,2023-01-10T07:24:58.538Z,,,d,,,135,499.9800000000396,timeout,eR.jpg,,,389879,389804.936,389304.956,389388,389321.622,389821.602,
トライアル,flow.Sequence,13_6,2023-01-10T07:24:58.538Z,,,d,,,135,4500.380000000005,completion,eR.jpg,,,389879.5,389804.936,385287.89,385362.1999999881,385304.556,389821.602,
空白時間1 (0.5秒),canvas.Screen,13_7_0,2023-01-10T07:24:59.037Z,,,d,,,90,499.9799999999814,timeout,eR.jpg,,,390378.7999999821,390304.916,389804.936,389879.6999999881,389821.602,390321.582,
注視(1秒),canvas.Screen,13_7_1,2023-01-10T07:25:00.037Z,,,d,,,90,999.960000000021,timeout,eR.jpg,,,391378.59999999404,391304.876,390304.916,390379.2999999821,390321.582,391321.542,
空白時間2 (0.5秒),canvas.Screen,13_7_2,2023-01-10T07:25:00.537Z,,,d,,,90,499.9799999999814,timeout,eR.jpg,,,391878.09999999404,391804.856,391304.876,391378.90000000596,391321.542,391821.522,
刺激提示,canvas.Screen,13_7_3,2023-01-10T07:25:01.925Z,,,d,true,d,90,1439.1779999880819,response,eR.jpg,d,keypress(j),393266.6999999881,393260.6999999881,391804.856,391878.5,391821.522,393221.466,
フィードバック(0.5秒),canvas.Screen,13_7_4,2023-01-10T07:25:02.437Z,,,d,,,90,499.9799999999814,timeout,eR.jpg,,,393778.59999999404,393704.78,393204.8,393283.1999999881,393221.466,393721.446,
トライアル,flow.Sequence,13_7,2023-01-10T07:25:02.437Z,,,d,,,90,3883.1780000000144,completion,eR.jpg,,,393779,393704.78,389804.936,389879.59999999404,389821.602,393721.446,
空白時間1 (0.5秒),canvas.Screen,13_8_0,2023-01-10T07:25:02.937Z,,,d,,,315,499.9799999999814,timeout,eR.jpg,,,394278.09999999404,394204.76,393704.78,393779.1999999881,393721.446,394221.426,
注視(1秒),canvas.Screen,13_8_1,2023-01-10T07:25:03.937Z,,,d,,,315,999.960000000021,timeout,eR.jpg,,,395278.2999999821,395204.72,394204.76,394278.5,394221.426,395221.386,
空白時間2 (0.5秒),canvas.Screen,13_8_2,2023-01-10T07:25:04.437Z,,,d,,,315,499.9799999999814,timeout,eR.jpg,,,395778.6999999881,395704.7,395204.72,395278.59999999404,395221.386,395721.366,
刺激提示,canvas.Screen,13_8_3,2023-01-10T07:25:05.505Z,,,d,true,d,315,1120.2339999940596,response,eR.jpg,d,keypress(j),396846.5,396841.59999999404,395704.7,395779.1999999881,395721.366,396804.656,
フィードバック(0.5秒),canvas.Screen,13_8_4,2023-01-10T07:25:06.021Z,,,d,,,315,500.58499999996275,timeout,eR.jpg,,,397362.2999999821,397288.575,396787.99,396875.40000000596,396804.656,397305.241,
トライアル,flow.Sequence,13_8,2023-01-10T07:25:06.021Z,,,d,,,315,3567.1290000000154,completion,eR.jpg,,,397362.7999999821,397288.575,393704.78,393779.09999999404,393721.446,397305.241,
空白時間1 (0.5秒),canvas.Screen,13_9_0,2023-01-10T07:25:06.521Z,,,b,,,135,499.9800000000396,timeout,e.jpg,,,397862.1999999881,397788.555,397288.575,397363,397305.241,397805.221,
注視(1秒),canvas.Screen,13_9_1,2023-01-10T07:25:07.520Z,,,b,,,135,999.9599999999627,timeout,e.jpg,,,398861.5,398788.515,397788.555,397862.59999999404,397805.221,398805.181,
空白時間2 (0.5秒),canvas.Screen,13_9_2,2023-01-10T07:25:08.020Z,,,b,,,135,499.9800000000396,timeout,e.jpg,,,399361.7999999821,399288.495,398788.515,398861.7999999821,398805.181,399305.161,
刺激提示,canvas.Screen,13_9_3,2023-01-10T07:25:08.735Z,,,b,true,b,135,768.5389999880572,response,e.jpg,b,keypress(f),400076.59999999404,400073.6999999881,399288.495,399362.2999999821,399305.161,400021.799,
フィードバック(0.5秒),canvas.Screen,13_9_4,2023-01-10T07:25:09.237Z,,,b,,,135,499.9799999999814,timeout,e.jpg,,,400578.7999999821,400505.113,400005.133,400078.59999999404,400021.799,400521.779,
トライアル,flow.Sequence,13_9,2023-01-10T07:25:09.238Z,,,b,,,135,3199.872000000032,completion,e.jpg,,,400579.40000000596,400505.113,397288.575,397363,397305.241,400521.779,
空白時間1 (0.5秒),canvas.Screen,13_10_0,2023-01-10T07:25:09.737Z,,,b,,,315,499.9800000000396,timeout,e.jpg,,,401078.2999999821,401005.093,400505.113,400579.59999999404,400521.779,401021.759,
注視(1秒),canvas.Screen,13_10_1,2023-01-10T07:25:10.737Z,,,b,,,315,999.9599999999627,timeout,e.jpg,,,402078.5,402005.053,401005.093,401078.59999999404,401021.759,402021.719,
空白時間2 (0.5秒),canvas.Screen,13_10_2,2023-01-10T07:25:11.237Z,,,b,,,315,499.9800000000396,timeout,e.jpg,,,402578.59999999404,402505.033,402005.053,402079,402021.719,402521.699,
刺激提示,canvas.Screen,13_10_3,2023-01-10T07:25:11.871Z,,,b,true,b,315,686.9009999940172,response,e.jpg,b,keypress(f),403212.6999999881,403208.59999999404,402505.033,402579,402521.699,403171.673,
フィードバック(0.5秒),canvas.Screen,13_10_4,2023-01-10T07:25:12.387Z,,,b,,,315,499.9799999999814,timeout,e.jpg,,,403728.90000000596,403654.987,403155.007,403227.2999999821,403171.673,403671.653,
トライアル,flow.Sequence,13_10,2023-01-10T07:25:12.388Z,,,b,,,315,3133.2080000000424,completion,e.jpg,,,403729.40000000596,403654.987,400505.113,400579.40000000596,400521.779,403671.653,
空白時間1 (0.5秒),canvas.Screen,13_11_0,2023-01-10T07:25:12.888Z,,,b,,,90,499.9799999999814,timeout,e.jpg,,,404229.1999999881,404154.967,403654.987,403729.59999999404,403671.653,404171.633,
注視(1秒),canvas.Screen,13_11_1,2023-01-10T07:25:13.887Z,,,b,,,90,999.960000000021,timeout,e.jpg,,,405228.90000000596,405154.927,404154.967,404229.59999999404,404171.633,405171.593,
空白時間2 (0.5秒),canvas.Screen,13_11_2,2023-01-10T07:25:14.387Z,,,b,,,90,499.9799999999814,timeout,e.jpg,,,405728.90000000596,405654.907,405154.927,405229.1999999881,405171.593,405671.573,
刺激提示,canvas.Screen,13_11_3,2023-01-10T07:25:14.947Z,,,b,true,b,90,611.4270000000251,response,e.jpg,b,keypress(f),406288.6999999881,406283,405654.907,405729.2999999821,405671.573,406238.217,
フィードバック(0.5秒),canvas.Screen,13_11_4,2023-01-10T07:25:15.454Z,,,b,,,90,499.9799999999814,timeout,e.jpg,,,406795.7999999821,406721.531,406221.551,406304.1999999881,406238.217,406738.197,
トライアル,flow.Sequence,13_11,2023-01-10T07:25:15.455Z,,,b,,,90,3049.878000000026,completion,e.jpg,,,406796.1999999881,406721.531,403654.987,403729.5,403671.653,406738.197,
空白時間1 (0.5秒),canvas.Screen,13_12_0,2023-01-10T07:25:15.954Z,,,b,,,0,499.9800000000396,timeout,e.jpg,,,407295.1999999881,407221.511,406721.531,406796.40000000596,406738.197,407238.177,
注視(1秒),canvas.Screen,13_12_1,2023-01-10T07:25:16.954Z,,,b,,,0,1000.5339999999851,timeout,e.jpg,,,408295.90000000596,408222.045,407221.511,407295.59999999404,407238.177,408238.711,
空白時間2 (0.5秒),canvas.Screen,13_12_2,2023-01-10T07:25:17.454Z,,,b,,,0,499.9799999999814,timeout,e.jpg,,,408795.7999999821,408722.025,408222.045,408296.1999999881,408238.711,408738.691,
刺激提示,canvas.Screen,13_12_3,2023-01-10T07:25:18.309Z,,,b,true,b,0,905.8090000000084,response,e.jpg,b,keypress(f),409650.2999999821,409644.5,408722.025,408796.2999999821,408738.691,409588.657,
フィードバック(0.5秒),canvas.Screen,13_12_4,2023-01-10T07:25:18.804Z,,,b,,,0,499.9799999999814,timeout,e.jpg,,,410145.5,410071.971,409571.991,409653.09999999404,409588.657,410088.637,
トライアル,flow.Sequence,13_12,2023-01-10T07:25:18.804Z,,,b,,,0,3333.774000000034,completion,e.jpg,,,410146,410071.971,406721.531,406796.40000000596,406738.197,410088.637,
空白時間1 (0.5秒),canvas.Screen,13_13_0,2023-01-10T07:25:19.304Z,,,b,,,225,499.9800000000396,timeout,e.jpg,,,410645.59999999404,410571.951,410071.971,410146.2999999821,410088.637,410588.617,
注視(1秒),canvas.Screen,13_13_1,2023-01-10T07:25:20.304Z,,,b,,,225,999.9599999999627,timeout,e.jpg,,,411645.40000000596,411571.911,410571.951,410645.90000000596,410588.617,411588.577,
空白時間2 (0.5秒),canvas.Screen,13_13_2,2023-01-10T07:25:20.804Z,,,b,,,225,499.9799999999814,timeout,e.jpg,,,412145.59999999404,412071.891,411571.911,411645.90000000596,411588.577,412088.557,
刺激提示,canvas.Screen,13_13_3,2023-01-10T07:25:21.549Z,,,b,true,b,225,795.9430000000284,response,e.jpg,b,keypress(f),412891,412884.5,412071.891,412146,412088.557,412838.527,
フィードバック(0.5秒),canvas.Screen,13_13_4,2023-01-10T07:25:22.054Z,,,b,,,225,499.9799999999814,timeout,e.jpg,,,413396,413321.841,412821.861,412906.59999999404,412838.527,413338.507,
トライアル,flow.Sequence,13_13,2023-01-10T07:25:22.055Z,,,b,,,225,3233.204000000027,completion,e.jpg,,,413396.40000000596,413321.841,410071.971,410146.2999999821,410088.637,413338.507,
空白時間1 (0.5秒),canvas.Screen,13_14_0,2023-01-10T07:25:22.554Z,,,b,,,180,499.9800000000396,timeout,e.jpg,,,413895.6999999881,413821.821,413321.841,413396.59999999404,413338.507,413838.487,
注視(1秒),canvas.Screen,13_14_1,2023-01-10T07:25:23.553Z,,,b,,,180,999.9599999999627,timeout,e.jpg,,,414895.1999999881,414821.781,413821.821,413896.09999999404,413838.487,414838.447,
空白時間2 (0.5秒),canvas.Screen,13_14_2,2023-01-10T07:25:24.053Z,,,b,,,180,499.9800000000396,timeout,e.jpg,,,415395.2999999821,415321.761,414821.781,414895.5,414838.447,415338.427,
刺激提示,canvas.Screen,13_14_3,2023-01-10T07:25:24.943Z,,,b,true,b,180,940.2729999880539,response,e.jpg,b,keypress(f),416284.6999999881,416278.6999999881,415321.761,415395.59999999404,415338.427,416238.391,
フィードバック(0.5秒),canvas.Screen,13_14_4,2023-01-10T07:25:25.453Z,,,b,,,180,499.9799999999814,timeout,e.jpg,,,416795,416721.705,416221.725,416300.6999999881,416238.391,416738.371,
トライアル,flow.Sequence,13_14,2023-01-10T07:25:25.454Z,,,b,,,180,3383.198000000033,completion,e.jpg,,,416795.2999999821,416721.705,413321.841,413396.5,413338.507,416738.371,
空白時間1 (0.5秒),canvas.Screen,13_15_0,2023-01-10T07:25:25.954Z,,,d,,,270,499.9800000000396,timeout,eR.jpg,,,417295.59999999404,417221.685,416721.705,416795.59999999404,416738.371,417238.351,
注視(1秒),canvas.Screen,13_15_1,2023-01-10T07:25:26.954Z,,,d,,,270,1000.5109999999986,timeout,eR.jpg,,,418295.6999999881,418222.196,417221.685,417296,417238.351,418238.862,
空白時間2 (0.5秒),canvas.Screen,13_15_2,2023-01-10T07:25:27.454Z,,,d,,,270,499.9799999999814,timeout,eR.jpg,,,418795.5,418722.176,418222.196,418296,418238.862,418738.842,
刺激提示,canvas.Screen,13_15_3,2023-01-10T07:25:28.153Z,,,d,true,d,270,749.9579999821144,response,eR.jpg,d,keypress(j),419494.59999999404,419488.7999999821,418722.176,418796,418738.842,419438.814,
フィードバック(0.5秒),canvas.Screen,13_15_4,2023-01-10T07:25:28.654Z,,,d,,,270,499.9799999999814,timeout,eR.jpg,,,419995.59999999404,419922.128,419422.148,419496.1999999881,419438.814,419938.794,
トライアル,flow.Sequence,13_15,2023-01-10T07:25:28.654Z,,,d,,,270,3183.7570000000414,completion,eR.jpg,,,419996.09999999404,419922.128,416721.705,416795.5,416738.371,419938.794,
タスクのセット,flow.Loop,13,2023-01-10T07:25:28.654Z,,,,,,,55018.44,completion,,,,419996.1999999881,419922.128,364887.022,364961.7999999821,364903.688,419938.794,
休憩,canvas.Screen,14,2023-01-10T07:26:28.650Z,,,,,,,59997.59999999998,timeout,,,,479993.1999999881,479919.728,419922.128,419996.40000000596,419938.794,479936.394,
休憩終了,html.Page,15,2023-01-10T07:26:35.693Z,,,,,,,7099.4059999821475,form submission,,,,487036.09999999404,487035.7999999821,479919.728,479993.59999999404,479936.394,486956.158,
イントロ2,html.Page,16,2023-01-10T07:26:40.553Z,,,,,,,4939.641999982123,form submission,,,,491896.1999999881,491895.7999999821,486939.492,487036.1999999881,486956.158,491839.296,
イントロ3,html.Page,17,2023-01-10T07:26:45.032Z,,,,,,,4535.1040000059875,form submission,,,,496374.6999999881,496374.40000000596,491822.63,491896.5,491839.296,496305.61,
イントロ4,html.Page,18,2023-01-10T07:26:48.466Z,,,,,,,3502.6899999821326,form submission,,,,499808.7999999821,499808.2999999821,496288.944,496375,496305.61,499738.806,
イントロ5,html.Page,19,2023-01-10T07:26:51.425Z,,,,,,,3028.594000005978,form submission,,,,502767.7999999821,502767.40000000596,499722.14,499809,499738.806,502705.354,
できるだけ早く正確に,canvas.Screen,20,2023-01-10T07:26:52.421Z,,,,,,,1001.4569999999949,timeout,,,,503764.40000000596,503690.145,502688.688,502768.09999999404,502705.354,503706.811,
空白時間1 (0.5秒),canvas.Screen,21_0_0,2023-01-10T07:26:52.920Z,,,d,,,90,499.9800000000396,timeout,2R.jpg,,,504263.6999999881,504190.125,503690.145,503764.90000000596,503706.811,504206.791,
注視(1秒),canvas.Screen,21_0_1,2023-01-10T07:26:53.920Z,,,d,,,90,999.9599999999627,timeout,2R.jpg,,,505263.5,505190.085,504190.125,504264.09999999404,504206.791,505206.751,
空白時間2 (0.5秒),canvas.Screen,21_0_2,2023-01-10T07:26:54.420Z,,,d,,,90,499.9800000000396,timeout,2R.jpg,,,505763.1999999881,505690.065,505190.085,505263.6999999881,505206.751,505706.731,
刺激提示(練習),canvas.Screen,21_0_3,2023-01-10T07:26:55.544Z,,,d,true,d,90,1174.1690000059316,response,2R.jpg,d,keypress(j),506887.1999999881,506880.90000000596,505690.065,505763.5,505706.731,506840.019,
フィードバック(0.5秒),canvas.Screen,21_0_4,2023-01-10T07:26:56.054Z,,,d,,,90,499.9800000000396,timeout,2R.jpg,,,507397.09999999404,507323.333,506806.687,506901.7999999821,506840.019,507339.999,
トライアル,flow.Sequence,21_0,2023-01-10T07:26:56.054Z,,,d,,,90,3616.521999999997,completion,2R.jpg,,,507397.59999999404,507323.333,503690.145,503764.7999999821,503706.811,507339.999,
空白時間1 (0.5秒),canvas.Screen,21_1_0,2023-01-10T07:26:56.554Z,,,b,,,180,499.9799999999814,timeout,2.jpg,,,507896.90000000596,507823.313,507323.333,507397.90000000596,507339.999,507839.979,
注視(1秒),canvas.Screen,21_1_1,2023-01-10T07:26:57.553Z,,,b,,,180,999.960000000021,timeout,2.jpg,,,508896.6999999881,508823.273,507823.313,507897.09999999404,507839.979,508839.939,
空白時間2 (0.5秒),canvas.Screen,21_1_2,2023-01-10T07:26:58.054Z,,,b,,,180,499.9799999999814,timeout,2.jpg,,,509396.90000000596,509323.253,508823.273,508897.09999999404,508839.939,509339.919,
刺激提示(練習),canvas.Screen,21_1_3,2023-01-10T07:26:59.126Z,,,b,true,b,180,1124.0810000000056,response,2.jpg,b,keypress(f),510469.6999999881,510464,509323.253,509397.1999999881,509339.919,510406.543,
フィードバック(0.5秒),canvas.Screen,21_1_4,2023-01-10T07:26:59.620Z,,,b,,,180,499.9799999999814,timeout,2.jpg,,,510963.5,510889.857,510389.877,510472.2999999821,510406.543,510906.523,
トライアル,flow.Sequence,21_1,2023-01-10T07:26:59.621Z,,,b,,,180,3549.8580000000075,completion,2.jpg,,,510963.90000000596,510889.857,507323.333,507397.7999999821,507339.999,510906.523,
空白時間1 (0.5秒),canvas.Screen,21_2_0,2023-01-10T07:27:00.119Z,,,b,,,45,499.9800000000396,timeout,2.jpg,,,511462.5,511389.837,510889.857,510964.09999999404,510906.523,511406.503,
注視(1秒),canvas.Screen,21_2_1,2023-01-10T07:27:01.120Z,,,b,,,45,999.9599999999627,timeout,2.jpg,,,512463.59999999404,512389.797,511389.837,511462.7999999821,511406.503,512406.463,
空白時間2 (0.5秒),canvas.Screen,21_2_2,2023-01-10T07:27:01.620Z,,,b,,,45,499.9800000000396,timeout,2.jpg,,,512963.5,512889.777,512389.797,512464,512406.463,512906.443,
刺激提示(練習),canvas.Screen,21_2_3,2023-01-10T07:27:02.196Z,,,b,true,b,45,627.1569999940111,response,2.jpg,b,keypress(f),513539.7999999821,513533.59999999404,512889.777,512963.7999999821,512906.443,513490.313,
フィードバック(0.5秒),canvas.Screen,21_2_4,2023-01-10T07:27:02.704Z,,,b,,,45,499.9799999999814,timeout,2.jpg,,,514047.09999999404,513973.627,513473.647,513554.7999999821,513490.313,513990.293,
トライアル,flow.Sequence,21_2,2023-01-10T07:27:02.704Z,,,b,,,45,3067.103999999992,completion,2.jpg,,,514047.5,513973.627,510889.857,510964.09999999404,510906.523,513990.293,
空白時間1 (0.5秒),canvas.Screen,21_3_0,2023-01-10T07:27:03.204Z,,,d,,,225,499.9799999999814,timeout,2R.jpg,,,514547.7999999821,514473.607,513973.627,514047.6999999881,513990.293,514490.273,
