sender,sender_type,sender_id,timestamp,meta,,answer,correct,correctResponse,deg,duration,ended_on,image,response,response_action,time_commit,time_end,time_render,time_run,time_show,time_switch,url
イントロ1,html.Page,0,2022-12-26T14:27:12.444Z,"{""labjs_version"":""20.2.4"",""labjs_build"":{""flavor"":""development"",""commit"":""f5b4a49f956347addd546a832a3327688c2c0fef""},""location"":""https://labjs.felixhenninger.com/api/labjs_preview/index.html"",""userAgent"":""Mozilla/5.0 (Macintosh; Intel Mac OS X 10_15_7) AppleWebKit/537.36 (KHTML, like Gecko) Chrome/108.0.0.0 Safari/537.36"",""platform"":""MacIntel"",""language"":""ja"",""locale"":""ja"",""timeZone"":""Asia/Tokyo"",""timezoneOffset"":-540,""screen_width"":2560,""screen_height"":1440,""scroll_width"":1660,""scroll_height"":1256,""window_innerWidth"":1660,""window_innerHeight"":1304,""devicePixelRatio"":1}",,,,,,1921.8889999998137,form submission,,,,2843.2999999998137,2842.2999999998137,736.931,932.0999999996275,920.411,2855.291,{}
イントロ2,html.Page,1,2022-12-26T14:27:14.335Z,,,,,,,1879.0089999998136,form submission,,,,4734.5,4734.299999999814,2838.611,2843.9000000003725,2855.291,4740.131,
イントロ3,html.Page,2,2022-12-26T14:27:15.345Z,,,,,,,1003.6689999998134,form submission,,,,5744.200000000186,5743.799999999814,4723.451,4734.5999999996275,4740.131,5757.611,
イントロ4,html.Page,3,2022-12-26T14:27:16.008Z,,,,,,,648.7890000003727,form submission,,,,6406.5999999996275,6406.4000000003725,5740.931,5744.4000000003725,5757.611,6408.131,
イントロ5,html.Page,4,2022-12-26T14:27:19.396Z,,,,,,,3386.6689999998134,form submission,,,,9795.599999999627,9794.799999999814,6391.451,6406.700000000186,6408.131,9810.851,
できるだけ早く正確に,canvas.Screen,5,2022-12-26T14:27:20.399Z,,,,,,,1017.9189999999999,timeout,,,,10797.799999999814,10795.41,9794.171,9795.700000000186,9810.851,10828.77,
空白時間1 (0.5秒),canvas.Screen,6_0_0,2022-12-26T14:27:20.916Z,,,d,,,315,500.39999999999964,timeout,eR.jpg,,,11315.099999999627,11312.49,10795.41,10798.099999999627,10828.77,11329.17,
注視(1秒),canvas.Screen,6_0_1,2022-12-26T14:27:21.916Z,,,d,,,315,1000.7999999999993,timeout,eR.jpg,,,12315.400000000373,12313.29,11312.49,11315.400000000373,11329.17,12329.97,
空白時間2 (0.5秒),canvas.Screen,6_0_2,2022-12-26T14:27:22.417Z,,,d,,,315,500.40000000000146,timeout,eR.jpg,,,12816.299999999814,12813.69,12313.29,12315.700000000186,12329.97,12830.37,
刺激提示(練習),canvas.Screen,6_0_3,2022-12-26T14:27:23.034Z,,,d,true,d,315,597.0300000003717,response,eR.jpg,d,keypress(j),13433.5,13427.400000000373,12813.69,12816.900000000373,12830.37,13447.53,
フィードバック(0.5秒),canvas.Screen,6_0_4,2022-12-26T14:27:23.534Z,,,d,,,315,517.0799999999999,timeout,eR.jpg,,,13933.599999999627,13931.25,13430.85,13434.799999999814,13447.53,13964.61,
トライアル,flow.Sequence,6_0,2022-12-26T14:27:23.536Z,,,d,,,315,3102.4799999999996,completion,eR.jpg,,,13935.299999999814,13931.25,10795.41,10798.099999999627,10828.77,13964.61,
空白時間1 (0.5秒),canvas.Screen,6_1_0,2022-12-26T14:27:24.052Z,,,b,,,270,500.39999999999964,timeout,e.jpg,,,14451,14448.33,13931.25,13935.700000000186,13964.61,14465.01,
注視(1秒),canvas.Screen,6_1_1,2022-12-26T14:27:25.051Z,,,b,,,270,1017.4799999999996,timeout,e.jpg,,,15450.599999999627,15449.13,14448.33,14451.299999999814,14465.01,15482.49,
空白時間2 (0.5秒),canvas.Screen,6_1_2,2022-12-26T14:27:25.570Z,,,b,,,270,500.39999999999964,timeout,e.jpg,,,15969,15966.21,15449.13,15451,15482.49,15982.89,
刺激提示(練習),canvas.Screen,6_1_3,2022-12-26T14:27:26.037Z,,,b,true,b,270,448.20999999962805,response,e.jpg,b,keypress(f),16436.400000000373,16431.099999999627,15966.21,15969.200000000186,15982.89,16483.29,
フィードバック(0.5秒),canvas.Screen,6_1_4,2022-12-26T14:27:26.571Z,,,b,,,270,500.3999999999978,timeout,e.jpg,,,16970,16967.01,16466.61,16440.200000000186,16483.29,16983.69,
トライアル,flow.Sequence,6_1,2022-12-26T14:27:26.571Z,,,b,,,270,3002.399999999998,completion,e.jpg,,,16970.700000000186,16967.01,13931.25,13935.599999999627,13964.61,16983.69,
空白時間1 (0.5秒),canvas.Screen,6_2_0,2022-12-26T14:27:27.070Z,,,d,,,135,500.40000000000146,timeout,eR.jpg,,,17469.599999999627,17467.41,16967.01,16971,16983.69,17484.09,
注視(1秒),canvas.Screen,6_2_1,2022-12-26T14:27:28.072Z,,,d,,,135,1017.4799999999996,timeout,eR.jpg,,,18471.299999999814,18468.21,17467.41,17470,17484.09,18501.57,
空白時間2 (0.5秒),canvas.Screen,6_2_2,2022-12-26T14:27:28.588Z,,,d,,,135,500.40000000000146,timeout,eR.jpg,,,18987.700000000186,18985.29,18468.21,18471.599999999627,18501.57,19001.97,
刺激提示(練習),canvas.Screen,6_2_3,2022-12-26T14:27:29.159Z,,,d,true,d,135,545.5299999999988,response,eR.jpg,d,keypress(j),19559,19547.5,18985.29,18987.900000000373,19001.97,19619.13,
フィードバック(0.5秒),canvas.Screen,6_2_4,2022-12-26T14:27:29.706Z,,,d,,,135,517.0799999999981,timeout,eR.jpg,,,20105.299999999814,20102.85,19602.45,19586.299999999814,19619.13,20136.21,
トライアル,flow.Sequence,6_2,2022-12-26T14:27:29.706Z,,,d,,,135,3119.16,completion,eR.jpg,,,20105.700000000186,20102.85,16967.01,16970.799999999814,16983.69,20136.21,
空白時間1 (0.5秒),canvas.Screen,6_3_0,2022-12-26T14:27:30.223Z,,,b,,,180,500.6550000000025,timeout,e.jpg,,,20622.5,20620.185,20102.85,20105.900000000373,20136.21,20636.865,
注視(1秒),canvas.Screen,6_3_1,2022-12-26T14:27:31.223Z,,,b,,,180,1017.4799999999996,timeout,e.jpg,,,21622.299999999814,21620.985,20620.185,20622.599999999627,20636.865,21654.345,
空白時間2 (0.5秒),canvas.Screen,6_3_2,2022-12-26T14:27:31.740Z,,,b,,,180,500.3999999999978,timeout,e.jpg,,,22139.599999999627,22138.065,21620.985,21622.400000000373,21654.345,22154.745,
刺激提示(練習),canvas.Screen,6_3_3,2022-12-26T14:27:32.369Z,,,b,false,b,180,609.9550000001873,response,e.jpg,d,keypress(j),22768.400000000373,22764.700000000186,22138.065,22139.700000000186,22154.745,22821.945,
フィードバック(0.5秒),canvas.Screen,6_3_4,2022-12-26T14:27:32.908Z,,,b,,,180,500.40000000000146,timeout,e.jpg,,,23307.799999999814,23305.665,22805.265,22791.400000000373,22821.945,23322.345,
トライアル,flow.Sequence,6_3,2022-12-26T14:27:32.909Z,,,b,,,180,3169.4550000000017,completion,e.jpg,,,23308.400000000373,23305.665,20102.85,20105.799999999814,20136.21,23322.345,
練習試行(e),flow.Loop,6,2022-12-26T14:27:32.909Z,,,,,,,12476.895,completion,,,,23308.700000000186,23305.665,10795.41,10798.099999999627,10828.77,23322.345,
イントロ6,html.Page,7,2022-12-26T14:27:37.044Z,,,,,,,4121.555000000371,form submission,,,,27444.400000000373,27443.900000000373,23305.665,23308.799999999814,23322.345,27442.305,
できるだけ早く正確に,canvas.Screen,8,2022-12-26T14:27:38.028Z,,,,,,,1034.1599999999999,timeout,,,,28428.400000000373,28426.425,27425.625,27444.599999999627,27442.305,28476.465,
空白時間1 (0.5秒),canvas.Screen,9_0_0,2022-12-26T14:27:38.562Z,,,b,,,180,500.40000000000146,timeout,e.jpg,,,28962.299999999814,28960.185,28426.425,28428.799999999814,28476.465,28976.865,
注視(1秒),canvas.Screen,9_0_1,2022-12-26T14:27:39.562Z,,,b,,,180,1000.7999999999993,timeout,e.jpg,,,29962.099999999627,29960.985,28960.185,28962.599999999627,28976.865,29977.665,
空白時間2 (0.5秒),canvas.Screen,9_0_2,2022-12-26T14:27:40.063Z,,,b,,,180,533.7599999999984,timeout,e.jpg,,,30463.099999999627,30461.385,29960.985,29962.400000000373,29977.665,30511.425,
刺激提示,canvas.Screen,9_0_3,2022-12-26T14:27:41.070Z,,,b,false,b,180,950.275000000187,response,e.jpg,d,keypress(j),31469.900000000373,31461.700000000186,30461.385,30463.299999999814,30511.425,31479.123,
フィードバック(0.5秒),canvas.Screen,9_0_4,2022-12-26T14:27:41.565Z,,,b,,,180,500.40000000000146,timeout,e.jpg,,,31964.900000000373,31962.843,31462.443,31482.900000000373,31479.123,31979.523,
トライアル,flow.Sequence,9_0,2022-12-26T14:27:41.565Z,,,b,,,180,3486.3780000000006,completion,e.jpg,,,31965.200000000186,31962.843,28426.425,28428.700000000186,28476.465,31979.523,
空白時間1 (0.5秒),canvas.Screen,9_1_0,2022-12-26T14:27:42.065Z,,,b,,,90,533.7599999999984,timeout,e.jpg,,,32464.900000000373,32463.243,31962.843,31965.5,31979.523,32513.283,
注視(1秒),canvas.Screen,9_1_1,2022-12-26T14:27:43.099Z,,,b,,,90,1000.7999999999993,timeout,e.jpg,,,33499.5,33497.403,32463.243,32465.099999999627,32513.283,33514.083,
空白時間2 (0.5秒),canvas.Screen,9_1_2,2022-12-26T14:27:43.599Z,,,b,,,90,500.40000000000146,timeout,e.jpg,,,33999.200000000186,33997.803,33497.403,33499.799999999814,33514.083,34014.483,
刺激提示,canvas.Screen,9_1_3,2022-12-26T14:27:44.342Z,,,b,true,b,90,720.8169999998136,response,e.jpg,b,keypress(f),34742,34735.299999999814,33997.803,33999.299999999814,34014.483,34748.403,
フィードバック(0.5秒),canvas.Screen,9_1_4,2022-12-26T14:27:44.834Z,,,b,,,90,500.40000000000146,timeout,e.jpg,,,35234.09999999963,35232.123,34731.723,34743.09999999963,34748.403,35248.803,
トライアル,flow.Sequence,9_1,2022-12-26T14:27:44.834Z,,,b,,,90,3252.5999999999985,completion,e.jpg,,,35234.59999999963,35232.123,31962.843,31965.400000000373,31979.523,35248.803,
空白時間1 (0.5秒),canvas.Screen,9_2_0,2022-12-26T14:27:45.335Z,,,d,,,315,500.40000000000146,timeout,eR.jpg,,,35734.799999999814,35732.523,35232.123,35234.799999999814,35248.803,35749.203,
注視(1秒),canvas.Screen,9_2_1,2022-12-26T14:27:46.336Z,,,d,,,315,1034.1599999999962,timeout,eR.jpg,,,36735.90000000037,36733.323,35732.523,35735,35749.203,36783.363,
空白時間2 (0.5秒),canvas.Screen,9_2_2,2022-12-26T14:27:46.868Z,,,d,,,315,500.40000000000146,timeout,eR.jpg,,,37268.40000000037,37267.083,36733.323,36736.09999999963,36783.363,37283.763,
刺激提示,canvas.Screen,9_2_3,2022-12-26T14:27:47.626Z,,,d,true,d,315,736.6370000003735,response,eR.jpg,d,keypress(j),38026.40000000037,38020.40000000037,37267.083,37268.799999999814,37283.763,38051.043,
フィードバック(0.5秒),canvas.Screen,9_2_4,2022-12-26T14:27:48.137Z,,,d,,,315,533.760000000002,timeout,eR.jpg,,,38537.700000000186,38534.763,38034.363,38039,38051.043,38584.803,
トライアル,flow.Sequence,9_2,2022-12-26T14:27:48.138Z,,,d,,,315,3285.959999999999,completion,eR.jpg,,,38538.09999999963,38534.763,35232.123,35234.799999999814,35248.803,38584.803,
空白時間1 (0.5秒),canvas.Screen,9_3_0,2022-12-26T14:27:48.671Z,,,d,,,180,500.40000000000146,timeout,eR.jpg,,,39071,39068.523,38534.763,38538.299999999814,38584.803,39085.203,
注視(1秒),canvas.Screen,9_3_1,2022-12-26T14:27:49.671Z,,,d,,,180,1000.7999999999956,timeout,eR.jpg,,,40071.200000000186,40069.323,39068.523,39071.200000000186,39085.203,40086.003,
空白時間2 (0.5秒),canvas.Screen,9_3_2,2022-12-26T14:27:50.171Z,,,d,,,180,500.40000000000146,timeout,eR.jpg,,,40571.700000000186,40569.723,40069.323,40071.40000000037,40086.003,40586.403,
刺激提示,canvas.Screen,9_3_3,2022-12-26T14:27:50.777Z,,,d,true,d,180,583.9970000003741,response,eR.jpg,d,keypress(j),41177.90000000037,41170.40000000037,40569.723,40572.200000000186,40586.403,41237.172,
フィードバック(0.5秒),canvas.Screen,9_3_4,2022-12-26T14:27:51.322Z,,,d,,,180,517.0800000000017,timeout,eR.jpg,,,41722.90000000037,41720.892,41220.492,41201.59999999963,41237.172,41754.252,
トライアル,flow.Sequence,9_3,2022-12-26T14:27:51.323Z,,,d,,,180,3136.089,completion,eR.jpg,,,41723.40000000037,41720.892,38534.763,38538.200000000186,38584.803,41754.252,
空白時間1 (0.5秒),canvas.Screen,9_4_0,2022-12-26T14:27:51.840Z,,,d,,,90,500.40000000000146,timeout,eR.jpg,,,42240.700000000186,42237.972,41720.892,41723.5,41754.252,42254.652,
注視(1秒),canvas.Screen,9_4_1,2022-12-26T14:27:52.840Z,,,d,,,90,1000.7999999999956,timeout,eR.jpg,,,43240.299999999814,43238.772,42237.972,42241,42254.652,43255.452,
空白時間2 (0.5秒),canvas.Screen,9_4_2,2022-12-26T14:27:53.341Z,,,d,,,90,517.0800000000017,timeout,eR.jpg,,,43742,43739.172,43238.772,43240.5,43255.452,43772.532,
刺激提示,canvas.Screen,9_4_3,2022-12-26T14:27:53.814Z,,,d,true,d,90,435.2679999998145,response,eR.jpg,d,keypress(j),44215.200000000186,44207.799999999814,43739.172,43742.299999999814,43772.532,44222.892,
フィードバック(0.5秒),canvas.Screen,9_4_4,2022-12-26T14:27:54.310Z,,,d,,,90,500.40000000000146,timeout,eR.jpg,,,44711.09999999963,44706.612,44206.212,44216.5,44222.892,44723.292,
トライアル,flow.Sequence,9_4,2022-12-26T14:27:54.311Z,,,d,,,90,2952.3600000000006,completion,eR.jpg,,,44711.200000000186,44706.612,41720.892,41723.40000000037,41754.252,44723.292,
空白時間1 (0.5秒),canvas.Screen,9_5_0,2022-12-26T14:27:54.807Z,,,b,,,315,533.760000000002,timeout,e.jpg,,,45208.200000000186,45207.012,44706.612,44711.5,44723.292,45257.052,
注視(1秒),canvas.Screen,9_5_1,2022-12-26T14:27:55.842Z,,,b,,,315,1000.7999999999956,timeout,e.jpg,,,46242.5,46241.172,45207.012,45208.40000000037,45257.052,46257.852,
空白時間2 (0.5秒),canvas.Screen,9_5_2,2022-12-26T14:27:56.343Z,,,b,,,315,500.40000000000146,timeout,e.jpg,,,46743.40000000037,46741.572,46241.172,46242.700000000186,46257.852,46758.252,
刺激提示,canvas.Screen,9_5_3,2022-12-26T14:27:56.887Z,,,b,true,b,315,520.8479999996271,response,e.jpg,b,keypress(f),47288.09999999963,47279.09999999963,46741.572,46743.59999999963,46758.252,47358.732,
フィードバック(0.5秒),canvas.Screen,9_5_4,2022-12-26T14:27:57.443Z,,,b,,,315,517.0799999999945,timeout,e.jpg,,,47844.299999999814,47842.452,47342.052,47311.09999999963,47358.732,47875.812,
トライアル,flow.Sequence,9_5,2022-12-26T14:27:57.444Z,,,b,,,315,3119.159999999996,completion,e.jpg,,,47844.5,47842.452,44706.612,44711.299999999814,44723.292,47875.812,
空白時間1 (0.5秒),canvas.Screen,9_6_0,2022-12-26T14:27:57.961Z,,,d,,,45,517.0800000000017,timeout,eR.jpg,,,48362,48359.532,47842.452,47844.799999999814,47875.812,48392.892,
注視(1秒),canvas.Screen,9_6_1,2022-12-26T14:27:58.979Z,,,d,,,45,1017.4800000000032,timeout,eR.jpg,,,49379.59999999963,49377.012,48359.532,48362.299999999814,48392.892,49410.372,
空白時間2 (0.5秒),canvas.Screen,9_6_2,2022-12-26T14:27:59.495Z,,,d,,,45,500.3999999999942,timeout,eR.jpg,,,49896.09999999963,49894.092,49377.012,49380,49410.372,49910.772,
刺激提示,canvas.Screen,9_6_3,2022-12-26T14:28:00.013Z,,,d,true,d,45,495.6280000003753,response,eR.jpg,d,keypress(j),50413.5,50406.40000000037,49894.092,49896.299999999814,49910.772,50461.212,
フィードバック(0.5秒),canvas.Screen,9_6_4,2022-12-26T14:28:00.546Z,,,d,,,45,500.40000000000146,timeout,eR.jpg,,,50946.59999999963,50944.932,50444.532,50430.299999999814,50461.212,50961.612,
トライアル,flow.Sequence,9_6,2022-12-26T14:28:00.546Z,,,d,,,45,3069.1200000000026,completion,eR.jpg,,,50946.700000000186,50944.932,47842.452,47844.799999999814,47875.812,50961.612,
空白時間1 (0.5秒),canvas.Screen,9_7_0,2022-12-26T14:28:01.046Z,,,d,,,270,500.65899999999965,timeout,eR.jpg,,,51446.799999999814,51445.591,50944.932,50946.799999999814,50961.612,51462.271,
注視(1秒),canvas.Screen,9_7_1,2022-12-26T14:28:02.048Z,,,d,,,270,1017.4799999999959,timeout,eR.jpg,,,52448.5,52446.391,51445.591,51447,51462.271,52479.751,
空白時間2 (0.5秒),canvas.Screen,9_7_2,2022-12-26T14:28:02.564Z,,,d,,,270,517.0800000000017,timeout,eR.jpg,,,52965.200000000186,52963.471,52446.391,52448.700000000186,52479.751,52996.831,
刺激提示,canvas.Screen,9_7_3,2022-12-26T14:28:03.209Z,,,d,true,d,270,605.0690000003742,response,eR.jpg,d,keypress(j),53609.59999999963,53601.90000000037,52963.471,52965.700000000186,52996.831,53630.671,
フィードバック(0.5秒),canvas.Screen,9_7_4,2022-12-26T14:28:03.715Z,,,d,,,270,517.0799999999945,timeout,eR.jpg,,,54116.59999999963,54114.391,53613.991,53622.299999999814,53630.671,54147.751,
トライアル,flow.Sequence,9_7,2022-12-26T14:28:03.717Z,,,d,,,270,3152.7790000000023,completion,eR.jpg,,,54117.799999999814,54114.391,50944.932,50946.799999999814,50961.612,54147.751,
空白時間1 (0.5秒),canvas.Screen,9_8_0,2022-12-26T14:28:04.232Z,,,b,,,0,500.40000000000146,timeout,e.jpg,,,54633.5,54631.471,54114.391,54118.59999999963,54147.751,54648.151,
注視(1秒),canvas.Screen,9_8_1,2022-12-26T14:28:05.232Z,,,b,,,0,1000.8000000000029,timeout,e.jpg,,,55633.59999999963,55632.271,54631.471,54633.700000000186,54648.151,55648.951,
空白時間2 (0.5秒),canvas.Screen,9_8_2,2022-12-26T14:28:05.733Z,,,b,,,0,500.40000000000146,timeout,e.jpg,,,56134.700000000186,56132.671,55632.271,55633.799999999814,55648.951,56149.351,
刺激提示,canvas.Screen,9_8_3,2022-12-26T14:28:06.246Z,,,b,true,b,0,490.1489999999976,response,e.jpg,b,keypress(f),56647.299999999814,56639.5,56132.671,56134.90000000037,56149.351,56649.751,
フィードバック(0.5秒),canvas.Screen,9_8_4,2022-12-26T14:28:06.735Z,,,b,,,0,500.40000000000146,timeout,e.jpg,,,57135.799999999814,57133.471,56633.071,56648.700000000186,56649.751,57150.151,
トライアル,flow.Sequence,9_8,2022-12-26T14:28:06.735Z,,,b,,,0,2985.720000000001,completion,e.jpg,,,57136.200000000186,57133.471,54114.391,54118.40000000037,54147.751,57150.151,
空白時間1 (0.5秒),canvas.Screen,9_9_0,2022-12-26T14:28:07.234Z,,,d,,,135,517.0800000000017,timeout,eR.jpg,,,57634.90000000037,57633.871,57133.471,57136.5,57150.151,57667.231,
注視(1秒),canvas.Screen,9_9_1,2022-12-26T14:28:08.252Z,,,d,,,135,1017.4800000000032,timeout,eR.jpg,,,58653.299999999814,58651.351,57633.871,57635.200000000186,57667.231,58684.711,
空白時間2 (0.5秒),canvas.Screen,9_9_2,2022-12-26T14:28:08.769Z,,,d,,,135,500.3999999999942,timeout,eR.jpg,,,59170.5,59168.431,58651.351,58653.59999999963,58684.711,59185.111,
刺激提示,canvas.Screen,9_9_3,2022-12-26T14:28:09.328Z,,,d,true,d,135,536.7890000003754,response,eR.jpg,d,keypress(j),59729.5,59721.90000000037,59168.431,59170.59999999963,59185.111,59752.231,
フィードバック(0.5秒),canvas.Screen,9_9_4,2022-12-26T14:28:09.836Z,,,d,,,135,500.40000000000146,timeout,eR.jpg,,,60237.5,60235.951,59735.551,59741.09999999963,59752.231,60252.631,
トライアル,flow.Sequence,9_9,2022-12-26T14:28:09.837Z,,,d,,,135,3085.800000000003,completion,eR.jpg,,,60238.200000000186,60235.951,57133.471,57136.40000000037,57150.151,60252.631,
空白時間1 (0.5秒),canvas.Screen,9_10_0,2022-12-26T14:28:10.337Z,,,b,,,135,500.40000000000146,timeout,e.jpg,,,60738.700000000186,60736.351,60235.951,60238.40000000037,60252.631,60753.031,
注視(1秒),canvas.Screen,9_10_1,2022-12-26T14:28:11.338Z,,,b,,,135,1034.1599999999962,timeout,e.jpg,,,61739.90000000037,61737.151,60736.351,60739,60753.031,61787.191,
空白時間2 (0.5秒),canvas.Screen,9_10_2,2022-12-26T14:28:11.872Z,,,b,,,135,500.66799999999785,timeout,e.jpg,,,62273.5,62271.179,61737.151,61740.09999999963,61787.191,62287.859,
刺激提示,canvas.Screen,9_10_3,2022-12-26T14:28:12.468Z,,,b,true,b,135,573.1410000000033,response,e.jpg,b,keypress(f),62869.40000000037,62861,62271.179,62273.5,62287.859,62888.339,
フィードバック(0.5秒),canvas.Screen,9_10_4,2022-12-26T14:28:12.972Z,,,b,,,135,517.0800000000017,timeout,e.jpg,,,63373,63372.059,62871.659,62871.200000000186,62888.339,63405.419,
トライアル,flow.Sequence,9_10,2022-12-26T14:28:12.972Z,,,b,,,135,3119.428,completion,e.jpg,,,63373.299999999814,63372.059,60235.951,60238.299999999814,60252.631,63405.419,
空白時間1 (0.5秒),canvas.Screen,9_11_0,2022-12-26T14:28:13.490Z,,,d,,,0,500.40000000000146,timeout,eR.jpg,,,63891,63889.139,63372.059,63373.5,63405.419,63905.819,
注視(1秒),canvas.Screen,9_11_1,2022-12-26T14:28:14.492Z,,,d,,,0,1000.7999999999956,timeout,eR.jpg,,,64893.299999999814,64889.939,63889.139,63891.299999999814,63905.819,64906.619,
空白時間2 (0.5秒),canvas.Screen,9_11_2,2022-12-26T14:28:14.991Z,,,d,,,0,500.40000000000146,timeout,eR.jpg,,,65392.59999999963,65390.339,64889.939,64893.5,64906.619,65407.019,
刺激提示,canvas.Screen,9_11_3,2022-12-26T14:28:15.516Z,,,d,true,d,0,502.58099999962724,response,eR.jpg,d,keypress(j),65917.40000000037,65909.59999999963,65390.339,65392.90000000037,65407.019,65974.139,
フィードバック(0.5秒),canvas.Screen,9_11_4,2022-12-26T14:28:16.059Z,,,d,,,0,517.0800000000017,timeout,eR.jpg,,,66460.40000000037,66457.859,65957.459,65942.29999999981,65974.139,66491.219,
トライアル,flow.Sequence,9_11,2022-12-26T14:28:16.059Z,,,d,,,0,3052.439999999995,completion,eR.jpg,,,66460.79999999981,66457.859,63372.059,63373.5,63405.419,66491.219,
空白時間1 (0.5秒),canvas.Screen,9_12_0,2022-12-26T14:28:16.576Z,,,b,,,45,517.0800000000017,timeout,e.jpg,,,66977.40000000037,66974.939,66457.859,66461,66491.219,67008.299,
注視(1秒),canvas.Screen,9_12_1,2022-12-26T14:28:17.593Z,,,b,,,45,1000.8000000000029,timeout,e.jpg,,,67994.70000000019,67992.419,66974.939,66977.70000000019,67008.299,68009.099,
空白時間2 (0.5秒),canvas.Screen,9_12_2,2022-12-26T14:28:18.093Z,,,b,,,45,500.3999999999942,timeout,e.jpg,,,68494.59999999963,68492.819,67992.419,67995,68009.099,68509.499,
刺激提示,canvas.Screen,9_12_3,2022-12-26T14:28:18.666Z,,,b,true,b,45,550.3009999998176,response,e.jpg,b,keypress(f),69068.09999999963,69059.79999999981,68492.819,68494.79999999981,68509.499,69093.299,
フィードバック(0.5秒),canvas.Screen,9_12_4,2022-12-26T14:28:19.177Z,,,b,,,45,533.7599999999948,timeout,e.jpg,,,69578.5,69577.019,69076.619,69081.40000000037,69093.299,69627.059,
トライアル,flow.Sequence,9_12,2022-12-26T14:28:19.177Z,,,b,,,45,3085.800000000003,completion,e.jpg,,,69578.79999999981,69577.019,66457.859,66460.90000000037,66491.219,69627.059,
空白時間1 (0.5秒),canvas.Screen,9_13_0,2022-12-26T14:28:19.711Z,,,d,,,225,500.40000000000873,timeout,eR.jpg,,,70113.20000000019,70110.779,69577.019,69578.90000000037,69627.059,70127.459,
注視(1秒),canvas.Screen,9_13_1,2022-12-26T14:28:20.712Z,,,d,,,225,1000.8000000000029,timeout,eR.jpg,,,71114.29999999981,71111.579,70110.779,70113.5,70127.459,71128.259,
空白時間2 (0.5秒),canvas.Screen,9_13_2,2022-12-26T14:28:21.211Z,,,d,,,225,533.7599999999948,timeout,eR.jpg,,,71613.09999999963,71611.979,71111.579,71114.5,71128.259,71662.019,
刺激提示,canvas.Screen,9_13_3,2022-12-26T14:28:22.028Z,,,d,true,d,225,761.0809999996272,response,eR.jpg,d,keypress(j),72430.20000000019,72423.09999999963,71611.979,71613.20000000019,71662.019,72445.979,
フィードバック(0.5秒),canvas.Screen,9_13_4,2022-12-26T14:28:22.531Z,,,d,,,225,500.66399999998976,timeout,eR.jpg,,,72932.5,72929.963,72429.299,72431.40000000037,72445.979,72946.643,
トライアル,flow.Sequence,9_13,2022-12-26T14:28:22.531Z,,,d,,,225,3302.9040000000095,completion,eR.jpg,,,72932.70000000019,72929.963,69577.019,69578.90000000037,69627.059,72946.643,
空白時間1 (0.5秒),canvas.Screen,9_14_0,2022-12-26T14:28:23.031Z,,,b,,,270,533.7600000000093,timeout,e.jpg,,,73432.5,73430.363,72929.963,72933,72946.643,73480.403,
注視(1秒),canvas.Screen,9_14_1,2022-12-26T14:28:24.065Z,,,b,,,270,1000.7999999999884,timeout,e.jpg,,,74467,74464.523,73430.363,73432.70000000019,73480.403,74481.203,
空白時間2 (0.5秒),canvas.Screen,9_14_2,2022-12-26T14:28:24.566Z,,,b,,,270,533.7600000000093,timeout,e.jpg,,,74967.59999999963,74964.923,74464.523,74467.29999999981,74481.203,75014.963,
刺激提示,canvas.Screen,9_14_3,2022-12-26T14:28:25.348Z,,,b,false,b,270,727.3369999998104,response,e.jpg,d,keypress(j),75750.29999999981,75742.29999999981,74964.923,74967.79999999981,75014.963,75765.563,
フィードバック(0.5秒),canvas.Screen,9_14_4,2022-12-26T14:28:25.849Z,,,b,,,270,500.40000000000873,timeout,e.jpg,,,76251.09999999963,76249.283,75748.883,75763.20000000019,75765.563,76265.963,
トライアル,flow.Sequence,9_14,2022-12-26T14:28:25.850Z,,,b,,,270,3302.6399999999994,completion,e.jpg,,,76251.5,76249.283,72929.963,72932.90000000037,72946.643,76265.963,
空白時間1 (0.5秒),canvas.Screen,9_15_0,2022-12-26T14:28:26.350Z,,,b,,,225,500.3999999999942,timeout,e.jpg,,,76752.29999999981,76749.683,76249.283,76251.70000000019,76265.963,76766.363,
注視(1秒),canvas.Screen,9_15_1,2022-12-26T14:28:27.350Z,,,b,,,225,1017.4799999999959,timeout,e.jpg,,,77752.5,77750.483,76749.683,76752.59999999963,76766.363,77783.843,
空白時間2 (0.5秒),canvas.Screen,9_15_2,2022-12-26T14:28:27.866Z,,,b,,,225,500.40000000000873,timeout,e.jpg,,,78268.40000000037,78267.563,77750.483,77752.79999999981,77783.843,78284.243,
刺激提示,canvas.Screen,9_15_3,2022-12-26T14:28:28.652Z,,,b,true,b,225,765.3569999996253,response,e.jpg,b,keypress(f),79054.29999999981,79049.59999999963,78267.563,78268.59999999963,78284.243,79101.563,
フィードバック(0.5秒),canvas.Screen,9_15_4,2022-12-26T14:28:29.185Z,,,b,,,225,517.0800000000017,timeout,e.jpg,,,79587,79585.283,79084.883,79077.79999999981,79101.563,79618.643,
トライアル,flow.Sequence,9_15,2022-12-26T14:28:29.185Z,,,b,,,225,3319.3199999999924,completion,e.jpg,,,79587.40000000037,79585.283,76249.283,76251.59999999963,76265.963,79618.643,
タスクのセット,flow.Loop,9,2022-12-26T14:28:29.186Z,,,,,,,51108.818,completion,,,,79587.59999999963,79585.283,28426.425,28428.700000000186,28476.465,79618.643,
空白時間1 (0.5秒),canvas.Screen,10_0_0,2022-12-26T14:28:29.701Z,,,b,,,270,517.0800000000017,timeout,e.jpg,,,80103.5,80102.363,79585.283,79587.90000000037,79618.643,80135.723,
注視(1秒),canvas.Screen,10_0_1,2022-12-26T14:28:30.720Z,,,b,,,270,1017.4799999999959,timeout,e.jpg,,,81122,81119.843,80102.363,80103.79999999981,80135.723,81153.203,
空白時間2 (0.5秒),canvas.Screen,10_0_2,2022-12-26T14:28:31.238Z,,,b,,,270,500.40000000000873,timeout,e.jpg,,,81639.90000000037,81636.923,81119.843,81122.20000000019,81153.203,81653.603,
刺激提示,canvas.Screen,10_0_3,2022-12-26T14:28:31.801Z,,,b,true,b,270,545.8969999999972,response,e.jpg,b,keypress(f),82203.40000000037,82199.5,81636.923,81640,81653.603,82220.723,
フィードバック(0.5秒),canvas.Screen,10_0_4,2022-12-26T14:28:32.304Z,,,b,,,270,500.40000000000873,timeout,e.jpg,,,82706.20000000019,82704.443,82204.043,82204.20000000019,82220.723,82721.123,
トライアル,flow.Sequence,10_0,2022-12-26T14:28:32.304Z,,,b,,,270,3085.800000000003,completion,e.jpg,,,82706.40000000037,82704.443,79585.283,79587.79999999981,79618.643,82721.123,
空白時間1 (0.5秒),canvas.Screen,10_1_0,2022-12-26T14:28:32.804Z,,,d,,,45,534.0149999999994,timeout,eR.jpg,,,83206.59999999963,83205.098,82704.443,82706.5,82721.123,83255.138,
注視(1秒),canvas.Screen,10_1_1,2022-12-26T14:28:33.839Z,,,d,,,45,1000.7999999999884,timeout,eR.jpg,,,84241.40000000037,84239.258,83205.098,83206.90000000037,83255.138,84255.938,
空白時間2 (0.5秒),canvas.Screen,10_1_2,2022-12-26T14:28:34.339Z,,,d,,,45,500.40000000000873,timeout,eR.jpg,,,84741.59999999963,84739.658,84239.258,84241.79999999981,84255.938,84756.338,
刺激提示,canvas.Screen,10_1_3,2022-12-26T14:28:34.832Z,,,d,true,d,45,469.8620000001829,response,eR.jpg,d,keypress(j),85234.20000000019,85226.20000000019,84739.658,84741.79999999981,84756.338,85306.778,
フィードバック(0.5秒),canvas.Screen,10_1_4,2022-12-26T14:28:35.390Z,,,d,,,45,500.3999999999942,timeout,eR.jpg,,,85792,85790.498,85290.098,85271.20000000019,85306.778,85807.178,
トライアル,flow.Sequence,10_1,2022-12-26T14:28:35.390Z,,,d,,,45,3069.375,completion,eR.jpg,,,85792.40000000037,85790.498,82704.443,82706.40000000037,82721.123,85807.178,
空白時間1 (0.5秒),canvas.Screen,10_2_0,2022-12-26T14:28:35.891Z,,,b,,,0,500.3999999999942,timeout,e.jpg,,,86293,86290.898,85790.498,85792.70000000019,85807.178,86307.578,
注視(1秒),canvas.Screen,10_2_1,2022-12-26T14:28:36.892Z,,,b,,,0,1000.8000000000029,timeout,e.jpg,,,87294.79999999981,87291.698,86290.898,86293.40000000037,86307.578,87308.378,
空白時間2 (0.5秒),canvas.Screen,10_2_2,2022-12-26T14:28:37.391Z,,,b,,,0,500.40000000000873,timeout,e.jpg,,,87793.79999999981,87792.098,87291.698,87295.20000000019,87308.378,87808.778,
刺激提示,canvas.Screen,10_2_3,2022-12-26T14:28:38.038Z,,,b,true,b,0,623.8219999996218,response,e.jpg,b,keypress(f),88440.5,88432.59999999963,87792.098,87794,87808.778,88459.298,
フィードバック(0.5秒),canvas.Screen,10_2_4,2022-12-26T14:28:38.543Z,,,b,,,0,500.40000000000873,timeout,e.jpg,,,88945.79999999981,88943.018,88442.618,88442.5,88459.298,88959.698,
トライアル,flow.Sequence,10_2,2022-12-26T14:28:38.544Z,,,b,,,0,3135.8399999999965,completion,e.jpg,,,88946.20000000019,88943.018,85790.498,85792.59999999963,85807.178,88959.698,
空白時間1 (0.5秒),canvas.Screen,10_3_0,2022-12-26T14:28:39.043Z,,,b,,,180,533.7599999999948,timeout,e.jpg,,,89445.29999999981,89443.418,88943.018,88946.40000000037,88959.698,89493.458,
注視(1秒),canvas.Screen,10_3_1,2022-12-26T14:28:40.077Z,,,b,,,180,1000.8000000000029,timeout,e.jpg,,,90479.90000000037,90477.578,89443.418,89445.5,89493.458,90494.258,
空白時間2 (0.5秒),canvas.Screen,10_3_2,2022-12-26T14:28:40.578Z,,,b,,,180,517.0800000000017,timeout,e.jpg,,,90980.40000000037,90977.978,90477.578,90480.09999999963,90494.258,91011.338,
刺激提示,canvas.Screen,10_3_3,2022-12-26T14:28:41.796Z,,,b,true,b,180,1178.761999999624,response,e.jpg,b,keypress(f),92198.70000000019,92190.09999999963,90977.978,90980.70000000019,91011.338,92212.298,
フィードバック(0.5秒),canvas.Screen,10_3_4,2022-12-26T14:28:42.296Z,,,b,,,180,500.40000000000873,timeout,e.jpg,,,92698.29999999981,92696.018,92195.618,92210.79999999981,92212.298,92712.698,
トライアル,flow.Sequence,10_3,2022-12-26T14:28:42.296Z,,,b,,,180,3736.3199999999924,completion,e.jpg,,,92698.70000000019,92696.018,88943.018,88946.29999999981,88959.698,92712.698,
空白時間1 (0.5秒),canvas.Screen,10_4_0,2022-12-26T14:28:42.795Z,,,d,,,0,533.7599999999948,timeout,eR.jpg,,,93198.09999999963,93196.418,92696.018,92698.90000000037,92712.698,93246.458,
注視(1秒),canvas.Screen,10_4_1,2022-12-26T14:28:43.830Z,,,d,,,0,1001.0620000000054,timeout,eR.jpg,,,94232.79999999981,94230.84,93196.418,93198.29999999981,93246.458,94247.52,
空白時間2 (0.5秒),canvas.Screen,10_4_2,2022-12-26T14:28:44.331Z,,,d,,,0,500.3999999999942,timeout,eR.jpg,,,94733.79999999981,94731.24,94230.84,94233.09999999963,94247.52,94747.92,
刺激提示,canvas.Screen,10_4_3,2022-12-26T14:28:44.843Z,,,d,true,d,0,490.8799999998155,response,eR.jpg,d,keypress(j),95245.59999999963,95238.79999999981,94731.24,94734,94747.92,95315.04,
フィードバック(0.5秒),canvas.Screen,10_4_4,2022-12-26T14:28:45.399Z,,,d,,,0,500.40000000000873,timeout,eR.jpg,,,95801.79999999981,95798.76,95298.36,95268.70000000019,95315.04,95815.44,
トライアル,flow.Sequence,10_4,2022-12-26T14:28:45.399Z,,,d,,,0,3086.061999999991,completion,eR.jpg,,,95802.20000000019,95798.76,92696.018,92698.90000000037,92712.698,95815.44,
空白時間1 (0.5秒),canvas.Screen,10_5_0,2022-12-26T14:28:45.899Z,,,b,,,225,517.0800000000017,timeout,e.jpg,,,96301.90000000037,96299.16,95798.76,95802.40000000037,95815.44,96332.52,
注視(1秒),canvas.Screen,10_5_1,2022-12-26T14:28:46.915Z,,,b,,,225,1000.8000000000029,timeout,e.jpg,,,97317.90000000037,97316.64,96299.16,96302.20000000019,96332.52,97333.32,
空白時間2 (0.5秒),canvas.Screen,10_5_2,2022-12-26T14:28:47.416Z,,,b,,,225,500.3999999999942,timeout,e.jpg,,,97819.20000000019,97817.04,97316.64,97318.20000000019,97333.32,97833.72,
刺激提示,canvas.Screen,10_5_3,2022-12-26T14:28:48.057Z,,,b,true,b,225,622.2799999999988,response,e.jpg,b,keypress(f),98460.20000000019,98456,97817.04,97819.29999999981,97833.72,98534.28,
フィードバック(0.5秒),canvas.Screen,10_5_4,2022-12-26T14:28:48.616Z,,,b,,,225,500.3999999999942,timeout,e.jpg,,,99019.20000000019,99018,98517.6,98461.59999999963,98534.28,99034.68,
トライアル,flow.Sequence,10_5,2022-12-26T14:28:48.617Z,,,b,,,225,3202.5599999999977,completion,e.jpg,,,99019.70000000019,99018,95798.76,95802.40000000037,95815.44,99034.68,
空白時間1 (0.5秒),canvas.Screen,10_6_0,2022-12-26T14:28:49.117Z,,,d,,,225,517.0800000000017,timeout,eR.jpg,,,99520.20000000019,99518.4,99018,99020,99034.68,99551.76,
注視(1秒),canvas.Screen,10_6_1,2022-12-26T14:28:50.136Z,,,d,,,225,1017.4800000000105,timeout,eR.jpg,,,100539,100535.88,99518.4,99520.59999999963,99551.76,100569.24,
空白時間2 (0.5秒),canvas.Screen,10_6_2,2022-12-26T14:28:50.653Z,,,d,,,225,500.3999999999942,timeout,eR.jpg,,,101055.79999999981,101052.96,100535.88,100539.29999999981,100569.24,101069.64,
刺激提示,canvas.Screen,10_6_3,2022-12-26T14:28:51.414Z,,,d,true,d,225,739.2600000003731,response,eR.jpg,d,keypress(j),101817.20000000019,101808.90000000037,101052.96,101056.09999999963,101069.64,101836.92,
フィードバック(0.5秒),canvas.Screen,10_6_4,2022-12-26T14:28:51.920Z,,,d,,,225,517.0800000000017,timeout,eR.jpg,,,102323.5,102320.64,101820.24,101830.5,101836.92,102354,
トライアル,flow.Sequence,10_6,2022-12-26T14:28:51.921Z,,,d,,,225,3285.9600000000064,completion,eR.jpg,,,102323.90000000037,102320.64,99018,99020,99034.68,102354,
空白時間1 (0.5秒),canvas.Screen,10_7_0,2022-12-26T14:28:52.436Z,,,d,,,270,500.3999999999942,timeout,eR.jpg,,,102839.40000000037,102837.72,102320.64,102324.09999999963,102354,102854.4,
注視(1秒),canvas.Screen,10_7_1,2022-12-26T14:28:53.437Z,,,d,,,270,1000.8000000000029,timeout,eR.jpg,,,103840.09999999963,103838.52,102837.72,102839.5,102854.4,103855.2,
空白時間2 (0.5秒),canvas.Screen,10_7_2,2022-12-26T14:28:53.938Z,,,d,,,270,534.023000000001,timeout,eR.jpg,,,104341,104339.183,103838.52,103840.29999999981,103855.2,104389.223,
刺激提示,canvas.Screen,10_7_3,2022-12-26T14:28:54.565Z,,,d,true,d,270,569.6770000003744,response,eR.jpg,d,keypress(j),104967.79999999981,104958.90000000037,104339.183,104341.29999999981,104389.223,104973.023,
フィードバック(0.5秒),canvas.Screen,10_7_4,2022-12-26T14:28:55.055Z,,,d,,,270,517.0800000000017,timeout,eR.jpg,,,105458.59999999963,105456.743,104956.343,104969.5,104973.023,105490.103,
トライアル,flow.Sequence,10_7,2022-12-26T14:28:55.056Z,,,d,,,270,3102.743000000002,completion,eR.jpg,,,105459.20000000019,105456.743,102320.64,102324.09999999963,102354,105490.103,
空白時間1 (0.5秒),canvas.Screen,10_8_0,2022-12-26T14:28:55.573Z,,,b,,,135,517.0800000000017,timeout,e.jpg,,,105976.40000000037,105973.823,105456.743,105459.40000000037,105490.103,106007.183,
注視(1秒),canvas.Screen,10_8_1,2022-12-26T14:28:56.590Z,,,b,,,135,1017.4799999999959,timeout,e.jpg,,,106993.59999999963,106991.303,105973.823,105976.59999999963,106007.183,107024.663,
空白時間2 (0.5秒),canvas.Screen,10_8_2,2022-12-26T14:28:57.108Z,,,b,,,135,500.3999999999942,timeout,e.jpg,,,107511.20000000019,107508.383,106991.303,106993.79999999981,107024.663,107525.063,
刺激提示,canvas.Screen,10_8_3,2022-12-26T14:28:58.050Z,,,b,true,b,135,921.4370000000054,response,e.jpg,b,keypress(f),108453.40000000037,108446.5,107508.383,107511.5,107525.063,108475.823,
フィードバック(0.5秒),canvas.Screen,10_8_4,2022-12-26T14:28:58.558Z,,,b,,,135,500.3999999999942,timeout,e.jpg,,,108961.5,108959.543,108459.143,108465.40000000037,108475.823,108976.223,
トライアル,flow.Sequence,10_8,2022-12-26T14:28:58.559Z,,,b,,,135,3469.4400000000023,completion,e.jpg,,,108962,108959.543,105456.743,105459.40000000037,105490.103,108976.223,
空白時間1 (0.5秒),canvas.Screen,10_9_0,2022-12-26T14:28:59.059Z,,,b,,,315,500.40000000000873,timeout,e.jpg,,,109462.20000000019,109459.943,108959.543,108962.20000000019,108976.223,109476.623,
注視(1秒),canvas.Screen,10_9_1,2022-12-26T14:29:00.059Z,,,b,,,315,1017.4799999999959,timeout,e.jpg,,,110462.20000000019,110460.743,109459.943,109462.40000000037,109476.623,110494.103,
空白時間2 (0.5秒),canvas.Screen,10_9_2,2022-12-26T14:29:00.576Z,,,b,,,315,500.3999999999942,timeout,e.jpg,,,110979.29999999981,110977.823,110460.743,110462.40000000037,110494.103,110994.503,
刺激提示,canvas.Screen,10_9_3,2022-12-26T14:29:01.176Z,,,b,true,b,315,579.1970000001893,response,e.jpg,b,keypress(f),111579.90000000037,111573.70000000019,110977.823,110979.40000000037,110994.503,111628.343,
フィードバック(0.5秒),canvas.Screen,10_9_4,2022-12-26T14:29:01.710Z,,,b,,,315,500.40000000000873,timeout,e.jpg,,,112113.59999999963,112112.063,111611.663,111602.70000000019,111628.343,112128.743,
トライアル,flow.Sequence,10_9,2022-12-26T14:29:01.710Z,,,b,,,315,3135.8399999999965,completion,e.jpg,,,112113.70000000019,112112.063,108959.543,108962.09999999963,108976.223,112128.743,
空白時間1 (0.5秒),canvas.Screen,10_10_0,2022-12-26T14:29:02.210Z,,,d,,,90,500.3999999999942,timeout,eR.jpg,,,112613.29999999981,112612.463,112112.063,112113.79999999981,112128.743,112629.143,
注視(1秒),canvas.Screen,10_10_1,2022-12-26T14:29:03.211Z,,,d,,,90,1034.1600000000035,timeout,eR.jpg,,,113614.40000000037,113613.263,112612.463,112613.40000000037,112629.143,113663.303,
空白時間2 (0.5秒),canvas.Screen,10_10_2,2022-12-26T14:29:03.745Z,,,d,,,90,500.3999999999942,timeout,eR.jpg,,,114148.29999999981,114147.023,113613.263,113614.59999999963,113663.303,114163.703,
刺激提示,canvas.Screen,10_10_3,2022-12-26T14:29:04.303Z,,,d,true,d,90,537.7970000000059,response,eR.jpg,d,keypress(j),114706.70000000019,114701.5,114147.023,114148.59999999963,114163.703,114747.759,
フィードバック(0.5秒),canvas.Screen,10_10_4,2022-12-26T14:29:04.862Z,,,d,,,90,517.0800000000017,timeout,eR.jpg,,,115265.5,115231.479,114731.079,114708.90000000037,114747.759,115264.839,
トライアル,flow.Sequence,10_10,2022-12-26T14:29:04.862Z,,,d,,,90,3102.7360000000044,completion,eR.jpg,,,115265.70000000019,115231.479,112112.063,112113.79999999981,112128.743,115264.839,
空白時間1 (0.5秒),canvas.Screen,10_11_0,2022-12-26T14:29:05.347Z,,,d,,,315,500.3999999999942,timeout,eR.jpg,,,115750.5,115748.559,115231.479,115265.70000000019,115264.839,115765.239,
注視(1秒),canvas.Screen,10_11_1,2022-12-26T14:29:06.348Z,,,d,,,315,1017.4799999999959,timeout,eR.jpg,,,116752,116749.359,115748.559,115750.70000000019,115765.239,116782.719,
空白時間2 (0.5秒),canvas.Screen,10_11_2,2022-12-26T14:29:06.865Z,,,d,,,315,517.0800000000017,timeout,eR.jpg,,,117269,117266.439,116749.359,116752.29999999981,116782.719,117299.799,
刺激提示,canvas.Screen,10_11_3,2022-12-26T14:29:07.625Z,,,d,true,d,315,720.6010000003735,response,eR.jpg,d,keypress(j),118028.5,118020.40000000037,117266.439,117269.40000000037,117299.799,118050.399,
フィードバック(0.5秒),canvas.Screen,10_11_4,2022-12-26T14:29:08.132Z,,,d,,,315,500.3999999999942,timeout,eR.jpg,,,118536.20000000019,118534.119,118033.719,118042.40000000037,118050.399,118550.799,
トライアル,flow.Sequence,10_11,2022-12-26T14:29:08.133Z,,,d,,,315,3269.279999999999,completion,eR.jpg,,,118536.59999999963,118534.119,115231.479,115265.70000000019,115264.839,118550.799,
空白時間1 (0.5秒),canvas.Screen,10_12_0,2022-12-26T14:29:08.633Z,,,d,,,180,500.3999999999942,timeout,eR.jpg,,,119036.59999999963,119034.519,118534.119,118536.90000000037,118550.799,119051.199,
注視(1秒),canvas.Screen,10_12_1,2022-12-26T14:29:09.633Z,,,d,,,180,1034.1600000000035,timeout,eR.jpg,,,120037.20000000019,120035.319,119034.519,119036.79999999981,119051.199,120085.359,
空白時間2 (0.5秒),canvas.Screen,10_12_2,2022-12-26T14:29:10.167Z,,,d,,,180,500.40000000000873,timeout,eR.jpg,,,120571,120569.079,120035.319,120037.40000000037,120085.359,120585.759,
刺激提示,canvas.Screen,10_12_3,2022-12-26T14:29:11.290Z,,,d,false,d,180,1102.7409999999945,response,eR.jpg,b,keypress(f),121693.70000000019,121688.5,120569.079,120571.59999999963,120585.759,121736.679,
フィードバック(0.5秒),canvas.Screen,10_12_4,2022-12-26T14:29:11.819Z,,,d,,,180,500.3999999999942,timeout,eR.jpg,,,122223,122220.399,121719.999,121718.09999999963,121736.679,122237.079,
トライアル,flow.Sequence,10_12,2022-12-26T14:29:11.819Z,,,d,,,180,3669.600000000006,completion,eR.jpg,,,122223.40000000037,122220.399,118534.119,118536.79999999981,118550.799,122237.079,
空白時間1 (0.5秒),canvas.Screen,10_13_0,2022-12-26T14:29:12.319Z,,,b,,,90,500.40000000000873,timeout,e.jpg,,,122722.59999999963,122720.799,122220.399,122223.59999999963,122237.079,122737.479,
注視(1秒),canvas.Screen,10_13_1,2022-12-26T14:29:13.320Z,,,b,,,90,1017.4799999999959,timeout,e.jpg,,,123723.59999999963,123721.599,122720.799,122722.79999999981,122737.479,123754.959,
空白時間2 (0.5秒),canvas.Screen,10_13_2,2022-12-26T14:29:13.837Z,,,b,,,90,500.3999999999942,timeout,e.jpg,,,124240.70000000019,124238.679,123721.599,123723.90000000037,123754.959,124255.359,
刺激提示,canvas.Screen,10_13_3,2022-12-26T14:29:14.418Z,,,b,true,b,90,560.2409999996307,response,e.jpg,b,keypress(f),124821.90000000037,124815.59999999963,124238.679,124241,124255.359,124839.41,
フィードバック(0.5秒),canvas.Screen,10_13_4,2022-12-26T14:29:14.922Z,,,b,,,90,533.7599999999948,timeout,e.jpg,,,125326.09999999963,125323.13,124822.73,124823,124839.41,125373.17,
トライアル,flow.Sequence,10_13,2022-12-26T14:29:14.922Z,,,b,,,90,3086.0510000000068,completion,e.jpg,,,125326.40000000037,125323.13,122220.399,122223.5,122237.079,125373.17,
空白時間1 (0.5秒),canvas.Screen,10_14_0,2022-12-26T14:29:15.455Z,,,b,,,45,500.40000000000873,timeout,e.jpg,,,125859.5,125856.89,125323.13,125326.59999999963,125373.17,125873.57,
注視(1秒),canvas.Screen,10_14_1,2022-12-26T14:29:16.456Z,,,b,,,45,1017.4799999999959,timeout,e.jpg,,,126859.70000000019,126857.69,125856.89,125859.70000000019,125873.57,126891.05,
空白時間2 (0.5秒),canvas.Screen,10_14_2,2022-12-26T14:29:16.973Z,,,b,,,45,500.3999999999942,timeout,e.jpg,,,127377,127374.77,126857.69,126860,126891.05,127391.45,
刺激提示,canvas.Screen,10_14_3,2022-12-26T14:29:17.504Z,,,b,true,b,45,506.7500000001892,response,e.jpg,b,keypress(f),127908.5,127898.20000000019,127374.77,127377.59999999963,127391.45,127941.89,
フィードバック(0.5秒),canvas.Screen,10_14_4,2022-12-26T14:29:18.024Z,,,b,,,45,517.0800000000017,timeout,e.jpg,,,128428,128425.61,127925.21,127936,127941.89,128458.97,
トライアル,flow.Sequence,10_14,2022-12-26T14:29:18.024Z,,,b,,,45,3052.4400000000023,completion,e.jpg,,,128428.40000000037,128425.61,125323.13,125326.59999999963,125373.17,128458.97,
空白時間1 (0.5秒),canvas.Screen,10_15_0,2022-12-26T14:29:18.541Z,,,d,,,135,517.0800000000017,timeout,eR.jpg,,,128945.09999999963,128942.69,128425.61,128428.59999999963,128458.97,128976.05,
注視(1秒),canvas.Screen,10_15_1,2022-12-26T14:29:19.557Z,,,d,,,135,1017.4799999999959,timeout,eR.jpg,,,129961.29999999981,129960.17,128942.69,128945.40000000037,128976.05,129993.53,
空白時間2 (0.5秒),canvas.Screen,10_15_2,2022-12-26T14:29:20.075Z,,,d,,,135,500.3999999999942,timeout,eR.jpg,,,130479.09999999963,130477.25,129960.17,129961.59999999963,129993.53,130493.93,
刺激提示,canvas.Screen,10_15_3,2022-12-26T14:29:20.686Z,,,d,true,d,135,588.070000000007,response,eR.jpg,d,keypress(j),131090.40000000037,131082,130477.25,130479.40000000037,130493.93,131094.41,
フィードバック(0.5秒),canvas.Screen,10_15_4,2022-12-26T14:29:21.176Z,,,d,,,135,500.3999999999942,timeout,eR.jpg,,,131580.2999999998,131578.13,131077.73,131091.2000000002,131094.41,131594.81,
トライアル,flow.Sequence,10_15,2022-12-26T14:29:21.176Z,,,d,,,135,3119.1600000000035,completion,eR.jpg,,,131580.7000000002,131578.13,128425.61,128428.5,128458.97,131594.81,
タスクのセット,flow.Loop,10,2022-12-26T14:29:21.177Z,,,,,,,51959.48700000001,completion,,,,131580.90000000037,131578.13,79585.283,79587.79999999981,79618.643,131594.81,
空白時間1 (0.5秒),canvas.Screen,11_0_0,2022-12-26T14:29:21.676Z,,,b,,,0,500.3999999999942,timeout,e.jpg,,,132079.90000000037,132078.53,131578.13,131581.09999999963,131594.81,132095.21,
注視(1秒),canvas.Screen,11_0_1,2022-12-26T14:29:22.677Z,,,b,,,0,1034.1600000000035,timeout,e.jpg,,,133081.40000000037,133079.33,132078.53,132080.2000000002,132095.21,133129.37,
空白時間2 (0.5秒),canvas.Screen,11_0_2,2022-12-26T14:29:23.211Z,,,b,,,0,500.3999999999942,timeout,e.jpg,,,133615.2000000002,133613.09,133079.33,133081.7000000002,133129.37,133629.77,
刺激提示,canvas.Screen,11_0_3,2022-12-26T14:29:23.723Z,,,b,true,b,0,489.93000000019674,response,e.jpg,b,keypress(f),134127.5,134119.7000000002,133613.09,133615.40000000037,133629.77,134180.21,
フィードバック(0.5秒),canvas.Screen,11_0_4,2022-12-26T14:29:24.262Z,,,b,,,0,500.3999999999942,timeout,e.jpg,,,134666.7000000002,134663.93,134163.53,134139.7000000002,134180.21,134680.61,
トライアル,flow.Sequence,11_0,2022-12-26T14:29:24.263Z,,,b,,,0,3069.1199999999953,completion,e.jpg,,,134667.09999999963,134663.93,131578.13,131581.09999999963,131594.81,134680.61,
空白時間1 (0.5秒),canvas.Screen,11_1_0,2022-12-26T14:29:24.762Z,,,b,,,45,500.6580000000249,timeout,e.jpg,,,135166.7000000002,135164.588,134663.93,134667.2999999998,134680.61,135181.268,
注視(1秒),canvas.Screen,11_1_1,2022-12-26T14:29:25.762Z,,,b,,,45,1034.1600000000035,timeout,e.jpg,,,136166.90000000037,136165.388,135164.588,135167,135181.268,136215.428,
空白時間2 (0.5秒),canvas.Screen,11_1_2,2022-12-26T14:29:26.296Z,,,b,,,45,500.3999999999942,timeout,e.jpg,,,136700.7999999998,136699.148,136165.388,136167.09999999963,136215.428,136715.828,
刺激提示,canvas.Screen,11_1_3,2022-12-26T14:29:26.760Z,,,b,true,b,45,441.37200000017765,response,e.jpg,b,keypress(f),137164.5,137157.2000000002,136699.148,136701,136715.828,137216.228,
フィードバック(0.5秒),canvas.Screen,11_1_4,2022-12-26T14:29:27.298Z,,,b,,,45,500.3999999999942,timeout,e.jpg,,,137702.7999999998,137699.948,137199.548,137187,137216.228,137716.628,
トライアル,flow.Sequence,11_1,2022-12-26T14:29:27.299Z,,,b,,,45,3019.338000000018,completion,e.jpg,,,137703.2000000002,137699.948,134663.93,134667.2000000002,134680.61,137716.628,
空白時間1 (0.5秒),canvas.Screen,11_2_0,2022-12-26T14:29:27.798Z,,,d,,,225,517.0800000000163,timeout,eR.jpg,,,138202.40000000037,138200.348,137699.948,137703.40000000037,137716.628,138233.708,
注視(1秒),canvas.Screen,11_2_1,2022-12-26T14:29:28.815Z,,,d,,,225,1000.7999999999884,timeout,eR.jpg,,,139219.2999999998,139217.828,138200.348,138202.59999999963,138233.708,139234.508,
空白時間2 (0.5秒),canvas.Screen,11_2_2,2022-12-26T14:29:29.316Z,,,d,,,225,500.3999999999942,timeout,eR.jpg,,,139720.90000000037,139718.228,139217.828,139219.7000000002,139234.508,139734.908,
刺激提示,canvas.Screen,11_2_3,2022-12-26T14:29:30.334Z,,,d,true,d,225,999.3919999998179,response,eR.jpg,d,keypress(j),140739,140734.2999999998,139718.228,139721.09999999963,139734.908,140752.388,
フィードバック(0.5秒),canvas.Screen,11_2_4,2022-12-26T14:29:30.834Z,,,d,,,225,500.3999999999942,timeout,eR.jpg,,,141238.90000000037,141236.108,140735.708,140739.7999999998,140752.388,141252.788,
トライアル,flow.Sequence,11_2,2022-12-26T14:29:30.834Z,,,d,,,225,3519.4800000000105,completion,eR.jpg,,,141239,141236.108,137699.948,137703.2999999998,137716.628,141252.788,
空白時間1 (0.5秒),canvas.Screen,11_3_0,2022-12-26T14:29:31.333Z,,,d,,,135,550.4400000000023,timeout,eR.jpg,,,141738.09999999963,141736.508,141236.108,141239.09999999963,141252.788,141803.228,
注視(1秒),canvas.Screen,11_3_1,2022-12-26T14:29:32.386Z,,,d,,,135,1000.7999999999884,timeout,eR.jpg,,,142790.7000000002,142787.348,141736.508,141738.2000000002,141803.228,142804.028,
空白時間2 (0.5秒),canvas.Screen,11_3_2,2022-12-26T14:29:32.885Z,,,d,,,135,500.4000000000233,timeout,eR.jpg,,,143289.40000000037,143287.748,142787.348,142790.90000000037,142804.028,143304.428,
刺激提示,canvas.Screen,11_3_3,2022-12-26T14:29:33.782Z,,,d,true,d,135,873.0719999999856,response,eR.jpg,d,keypress(j),144186.40000000037,144177.5,143287.748,143289.7000000002,143304.428,144255.188,
フィードバック(0.5秒),canvas.Screen,11_3_4,2022-12-26T14:29:34.336Z,,,d,,,135,500.3999999999942,timeout,eR.jpg,,,144741,144738.908,144238.508,144209.7000000002,144255.188,144755.588,
トライアル,flow.Sequence,11_3,2022-12-26T14:29:34.337Z,,,d,,,135,3486.1199999999953,completion,eR.jpg,,,144741.5,144738.908,141236.108,141239,141252.788,144755.588,
空白時間1 (0.5秒),canvas.Screen,11_4_0,2022-12-26T14:29:34.836Z,,,d,,,45,534.0100000000093,timeout,eR.jpg,,,145241,145239.558,144738.908,144741.59999999963,144755.588,145289.598,
注視(1秒),canvas.Screen,11_4_1,2022-12-26T14:29:35.872Z,,,d,,,45,1000.7999999999884,timeout,eR.jpg,,,146276.5,146273.718,145239.558,145242.09999999963,145289.598,146290.398,
空白時間2 (0.5秒),canvas.Screen,11_4_2,2022-12-26T14:29:36.371Z,,,d,,,45,500.4000000000233,timeout,eR.jpg,,,146775.5,146774.118,146273.718,146276.90000000037,146290.398,146790.798,
刺激提示,canvas.Screen,11_4_3,2022-12-26T14:29:36.908Z,,,d,true,d,45,514.001999999804,response,eR.jpg,d,keypress(j),147313.40000000037,147304.7999999998,146774.118,146775.7000000002,146790.798,147374.598,
フィードバック(0.5秒),canvas.Screen,11_4_4,2022-12-26T14:29:37.454Z,,,d,,,45,517.0800000000163,timeout,eR.jpg,,,147859.2999999998,147858.318,147357.918,147337,147374.598,147891.678,
トライアル,flow.Sequence,11_4,2022-12-26T14:29:37.455Z,,,d,,,45,3102.7300000000105,completion,eR.jpg,,,147859.7999999998,147858.318,144738.908,144741.59999999963,144755.588,147891.678,
空白時間1 (0.5秒),canvas.Screen,11_5_0,2022-12-26T14:29:37.973Z,,,b,,,135,500.3999999999942,timeout,e.jpg,,,148378,148375.398,147858.318,147860,147891.678,148392.078,
注視(1秒),canvas.Screen,11_5_1,2022-12-26T14:29:38.974Z,,,b,,,135,1000.7999999999884,timeout,e.jpg,,,149378.59999999963,149376.198,148375.398,148378.2999999998,148392.078,149392.878,
空白時間2 (0.5秒),canvas.Screen,11_5_2,2022-12-26T14:29:39.473Z,,,b,,,135,500.3999999999942,timeout,e.jpg,,,149878,149876.598,149376.198,149378.90000000037,149392.878,149893.278,
刺激提示,canvas.Screen,11_5_3,2022-12-26T14:29:40.146Z,,,b,true,b,135,651.7220000000088,response,e.jpg,b,keypress(f),150551.59999999963,150545,149876.598,149878.2000000002,149893.278,150593.838,
フィードバック(0.5秒),canvas.Screen,11_5_4,2022-12-26T14:29:40.675Z,,,b,,,135,500.4000000000233,timeout,e.jpg,,,151080,151077.558,150577.158,150553.59999999963,150593.838,151094.238,
トライアル,flow.Sequence,11_5,2022-12-26T14:29:40.675Z,,,b,,,135,3185.8799999999756,completion,e.jpg,,,151080.40000000037,151077.558,147858.318,147859.90000000037,147891.678,151094.238,
空白時間1 (0.5秒),canvas.Screen,11_6_0,2022-12-26T14:29:41.175Z,,,b,,,315,500.3999999999942,timeout,e.jpg,,,151580.09999999963,151577.958,151077.558,151080.59999999963,151094.238,151594.638,
注視(1秒),canvas.Screen,11_6_1,2022-12-26T14:29:42.175Z,,,b,,,315,1017.4799999999814,timeout,e.jpg,,,152580.40000000037,152578.758,151577.958,151580.2999999998,151594.638,152612.118,
空白時間2 (0.5秒),canvas.Screen,11_6_2,2022-12-26T14:29:42.692Z,,,b,,,315,517.0800000000163,timeout,e.jpg,,,153096.7999999998,153095.838,152578.758,152580.7000000002,152612.118,153129.198,
刺激提示,canvas.Screen,11_6_3,2022-12-26T14:29:43.241Z,,,b,true,b,315,509.4019999996235,response,e.jpg,b,keypress(f),153646.40000000037,153638.59999999963,153095.838,153096.90000000037,153129.198,153662.958,
フィードバック(0.5秒),canvas.Screen,11_6_4,2022-12-26T14:29:43.743Z,,,b,,,315,500.3999999999942,timeout,e.jpg,,,154148.2000000002,154146.678,153646.278,153660.40000000037,153662.958,154163.358,
トライアル,flow.Sequence,11_6,2022-12-26T14:29:43.743Z,,,b,,,315,3052.4400000000023,completion,e.jpg,,,154148.59999999963,154146.678,151077.558,151080.59999999963,151094.238,154163.358,
空白時間1 (0.5秒),canvas.Screen,11_7_0,2022-12-26T14:29:44.243Z,,,d,,,90,533.7599999999802,timeout,eR.jpg,,,154648.2999999998,154647.078,154146.678,154148.7000000002,154163.358,154697.118,
注視(1秒),canvas.Screen,11_7_1,2022-12-26T14:29:45.278Z,,,d,,,90,1000.8000000000175,timeout,eR.jpg,,,155683.09999999963,155681.238,154647.078,154648.5,154697.118,155697.918,
空白時間2 (0.5秒),canvas.Screen,11_7_2,2022-12-26T14:29:45.779Z,,,d,,,90,500.6710000000021,timeout,eR.jpg,,,156183.90000000037,156181.909,155681.238,155683.2000000002,155697.918,156198.589,
刺激提示,canvas.Screen,11_7_3,2022-12-26T14:29:46.413Z,,,d,true,d,90,612.5109999996203,response,eR.jpg,d,keypress(j),156818.2000000002,156811.09999999963,156181.909,156184.09999999963,156198.589,156882.469,
フィードバック(0.5秒),canvas.Screen,11_7_4,2022-12-26T14:29:46.962Z,,,d,,,90,500.3999999999942,timeout,eR.jpg,,,157367.90000000037,157366.189,156865.789,156821.59999999963,156882.469,157382.869,
トライアル,flow.Sequence,11_7,2022-12-26T14:29:46.963Z,,,d,,,90,3202.8310000000056,completion,eR.jpg,,,157368.2000000002,157366.189,154146.678,154148.7000000002,154163.358,157382.869,
空白時間1 (0.5秒),canvas.Screen,11_8_0,2022-12-26T14:29:47.464Z,,,b,,,90,500.3999999999942,timeout,e.jpg,,,157869,157866.589,157366.189,157368.5,157382.869,157883.269,
注視(1秒),canvas.Screen,11_8_1,2022-12-26T14:29:48.464Z,,,b,,,90,1017.4800000000105,timeout,e.jpg,,,158869.5,158867.389,157866.589,157869.2999999998,157883.269,158900.749,
空白時間2 (0.5秒),canvas.Screen,11_8_2,2022-12-26T14:29:48.981Z,,,b,,,90,500.3999999999942,timeout,e.jpg,,,159386.59999999963,159384.469,158867.389,158869.7999999998,158900.749,159401.149,
刺激提示,canvas.Screen,11_8_3,2022-12-26T14:29:49.567Z,,,b,true,b,90,559.9509999996226,response,e.jpg,b,keypress(f),159972.7000000002,159961.09999999963,159384.469,159386.90000000037,159401.149,160001.629,
フィードバック(0.5秒),canvas.Screen,11_8_4,2022-12-26T14:29:50.082Z,,,b,,,90,500.4000000000233,timeout,e.jpg,,,160487.2999999998,160485.349,159984.949,159986.90000000037,160001.629,160502.029,
トライアル,flow.Sequence,11_8,2022-12-26T14:29:50.082Z,,,b,,,90,3102.4799999999814,completion,e.jpg,,,160487.59999999963,160485.349,157366.189,157368.40000000037,157382.869,160502.029,
空白時間1 (0.5秒),canvas.Screen,11_9_0,2022-12-26T14:29:50.584Z,,,d,,,180,533.7599999999802,timeout,eR.jpg,,,160989.40000000037,160985.749,160485.349,160487.7999999998,160502.029,161035.789,
注視(1秒),canvas.Screen,11_9_1,2022-12-26T14:29:51.617Z,,,d,,,180,1000.8000000000175,timeout,eR.jpg,,,162022.09999999963,162019.909,160985.749,160989.59999999963,161035.789,162036.589,
空白時間2 (0.5秒),canvas.Screen,11_9_2,2022-12-26T14:29:52.116Z,,,d,,,180,533.7599999999802,timeout,eR.jpg,,,162521.59999999963,162520.309,162019.909,162022.40000000037,162036.589,162570.349,
刺激提示,canvas.Screen,11_9_3,2022-12-26T14:29:52.972Z,,,d,true,d,180,799.6510000000126,response,eR.jpg,d,keypress(j),163378,163370,162520.309,162521.90000000037,162570.349,163421.029,
フィードバック(0.5秒),canvas.Screen,11_9_4,2022-12-26T14:29:53.502Z,,,d,,,180,500.3999999999942,timeout,eR.jpg,,,163907.2000000002,163904.749,163387.669,163391.2999999998,163421.029,163921.429,
トライアル,flow.Sequence,11_9,2022-12-26T14:29:53.502Z,,,d,,,180,3402.720000000001,completion,eR.jpg,,,163907.59999999963,163904.749,160485.349,160487.7999999998,160502.029,163921.429,
空白時間1 (0.5秒),canvas.Screen,11_10_0,2022-12-26T14:29:54.002Z,,,b,,,180,500.3999999999942,timeout,e.jpg,,,164407.40000000037,164405.149,163904.749,163907.90000000037,163921.429,164421.829,
注視(1秒),canvas.Screen,11_10_1,2022-12-26T14:29:55.003Z,,,b,,,180,1034.1600000000035,timeout,e.jpg,,,165408.7999999998,165405.949,164405.149,164407.7000000002,164421.829,165455.989,
空白時間2 (0.5秒),canvas.Screen,11_10_2,2022-12-26T14:29:55.536Z,,,b,,,180,500.3999999999942,timeout,e.jpg,,,165941.90000000037,165939.709,165405.949,165408.90000000037,165455.989,165956.389,
刺激提示,canvas.Screen,11_10_3,2022-12-26T14:29:56.909Z,,,b,true,b,180,1351.3110000001907,response,e.jpg,b,keypress(f),167315,167307.7000000002,165939.709,165942.2000000002,165956.389,167374.444,
フィードバック(0.5秒),canvas.Screen,11_10_4,2022-12-26T14:29:57.454Z,,,b,,,180,500.4000000000233,timeout,e.jpg,,,167860.2000000002,167858.164,167357.764,167337.7999999998,167374.444,167874.844,
トライアル,flow.Sequence,11_10,2022-12-26T14:29:57.455Z,,,b,,,180,3936.734999999986,completion,e.jpg,,,167860.59999999963,167858.164,163904.749,163907.7999999998,163921.429,167874.844,
空白時間1 (0.5秒),canvas.Screen,11_11_0,2022-12-26T14:29:57.955Z,,,d,,,270,500.3999999999942,timeout,eR.jpg,,,168361.09999999963,168358.564,167858.164,167860.7999999998,167874.844,168375.244,
注視(1秒),canvas.Screen,11_11_1,2022-12-26T14:29:58.956Z,,,d,,,270,1034.1600000000035,timeout,eR.jpg,,,169361.5,169359.364,168358.564,168361.2999999998,168375.244,169409.404,
空白時間2 (0.5秒),canvas.Screen,11_11_2,2022-12-26T14:29:59.489Z,,,d,,,270,500.3999999999942,timeout,eR.jpg,,,169895.2000000002,169893.124,169359.364,169361.59999999963,169409.404,169909.804,
刺激提示,canvas.Screen,11_11_3,2022-12-26T14:30:00.259Z,,,d,true,d,270,750.0960000003688,response,eR.jpg,d,keypress(j),170664.7000000002,170659.90000000037,169893.124,169895.40000000037,169909.804,170710.444,
フィードバック(0.5秒),canvas.Screen,11_11_4,2022-12-26T14:30:00.789Z,,,d,,,270,517.0800000000163,timeout,eR.jpg,,,171195,171194.164,170693.764,170666.59999999963,170710.444,171227.524,
トライアル,flow.Sequence,11_11,2022-12-26T14:30:00.789Z,,,d,,,270,3319.319999999978,completion,eR.jpg,,,171195.2000000002,171194.164,167858.164,167860.7000000002,167874.844,171227.524,
空白時間1 (0.5秒),canvas.Screen,11_12_0,2022-12-26T14:30:01.306Z,,,d,,,0,517.0799999999872,timeout,eR.jpg,,,171712.40000000037,171711.244,171194.164,171195.2999999998,171227.524,171744.604,
注視(1秒),canvas.Screen,11_12_1,2022-12-26T14:30:02.325Z,,,d,,,0,1000.8000000000175,timeout,eR.jpg,,,172730.7999999998,172728.724,171711.244,171712.5,171744.604,172745.404,
空白時間2 (0.5秒),canvas.Screen,11_12_2,2022-12-26T14:30:02.826Z,,,d,,,0,500.3999999999942,timeout,eR.jpg,,,173231.7999999998,173229.124,172728.724,172730.90000000037,172745.404,173245.804,
刺激提示,canvas.Screen,11_12_3,2022-12-26T14:30:03.446Z,,,d,true,d,0,598.0960000003688,response,eR.jpg,d,keypress(j),173852.2999999998,173843.90000000037,173229.124,173232,173245.804,173879.644,
フィードバック(0.5秒),canvas.Screen,11_12_4,2022-12-26T14:30:03.959Z,,,d,,,0,500.3999999999942,timeout,eR.jpg,,,174365,174363.364,173862.964,173864.09999999963,173879.644,174380.044,
トライアル,flow.Sequence,11_12,2022-12-26T14:30:03.959Z,,,d,,,0,3135.8399999999965,completion,eR.jpg,,,174365.2000000002,174363.364,171194.164,171195.2000000002,171227.524,174380.044,
空白時間1 (0.5秒),canvas.Screen,11_13_0,2022-12-26T14:30:04.461Z,,,d,,,315,533.7600000000093,timeout,eR.jpg,,,174866.90000000037,174863.764,174363.364,174365.2999999998,174380.044,174913.804,
注視(1秒),canvas.Screen,11_13_1,2022-12-26T14:30:05.495Z,,,d,,,315,1000.7999999999884,timeout,eR.jpg,,,175900.7999999998,175897.924,174863.764,174867.09999999963,174913.804,175914.604,
空白時間2 (0.5秒),canvas.Screen,11_13_2,2022-12-26T14:30:05.995Z,,,d,,,315,500.3999999999942,timeout,eR.jpg,,,176400.09999999963,176398.324,175897.924,175901.7999999998,175914.604,176415.004,
刺激提示,canvas.Screen,11_13_3,2022-12-26T14:30:06.506Z,,,d,true,d,315,489.1960000002,response,eR.jpg,d,keypress(j),176912.5,176904.2000000002,176398.324,176402.59999999963,176415.004,176982.384,
フィードバック(0.5秒),canvas.Screen,11_13_4,2022-12-26T14:30:07.063Z,,,d,,,315,500.4000000000233,timeout,eR.jpg,,,177469.2000000002,177466.104,176965.704,176915.2999999998,176982.384,177482.784,
トライアル,flow.Sequence,11_13,2022-12-26T14:30:07.063Z,,,d,,,315,3086.0599999999977,completion,eR.jpg,,,177469.59999999963,177466.104,174363.364,174365.2999999998,174380.044,177482.784,
空白時間1 (0.5秒),canvas.Screen,11_14_0,2022-12-26T14:30:07.563Z,,,b,,,225,500.3999999999942,timeout,e.jpg,,,177968.7999999998,177966.504,177466.104,177469.90000000037,177482.784,177983.184,
注視(1秒),canvas.Screen,11_14_1,2022-12-26T14:30:08.563Z,,,b,,,225,1000.7999999999884,timeout,e.jpg,,,178969.59999999963,178967.304,177966.504,177969.09999999963,177983.184,178983.984,
空白時間2 (0.5秒),canvas.Screen,11_14_2,2022-12-26T14:30:09.063Z,,,b,,,225,500.3999999999942,timeout,e.jpg,,,179469.7999999998,179467.704,178967.304,178969.90000000037,178983.984,179484.384,
刺激提示,canvas.Screen,11_14_3,2022-12-26T14:30:09.734Z,,,b,true,b,225,648.6160000000091,response,e.jpg,b,keypress(f),180140.7000000002,180133,179467.704,179470,179484.384,180168.264,
フィードバック(0.5秒),canvas.Screen,11_14_4,2022-12-26T14:30:10.248Z,,,b,,,225,533.7600000000093,timeout,e.jpg,,,180654.2999999998,180651.984,180151.584,180152.09999999963,180168.264,180702.024,
トライアル,flow.Sequence,11_14,2022-12-26T14:30:10.248Z,,,b,,,225,3169.1999999999825,completion,e.jpg,,,180654.7999999998,180651.984,177466.104,177469.7000000002,177482.784,180702.024,
空白時間1 (0.5秒),canvas.Screen,11_15_0,2022-12-26T14:30:10.782Z,,,b,,,270,500.3999999999942,timeout,e.jpg,,,181188,181185.744,180651.984,180655,180702.024,181202.424,
注視(1秒),canvas.Screen,11_15_1,2022-12-26T14:30:11.782Z,,,b,,,270,1000.7999999999884,timeout,e.jpg,,,182188.7999999998,182186.544,181185.744,181188.2999999998,181202.424,182203.224,
空白時間2 (0.5秒),canvas.Screen,11_15_2,2022-12-26T14:30:12.283Z,,,b,,,270,517.0800000000163,timeout,e.jpg,,,182689.7999999998,182686.944,182186.544,182189,182203.224,182720.304,
刺激提示,canvas.Screen,11_15_3,2022-12-26T14:30:12.907Z,,,b,true,b,270,585.2959999996237,response,e.jpg,b,keypress(f),183313.7999999998,183305.59999999963,182686.944,182689.90000000037,182720.304,183337.464,
フィードバック(0.5秒),canvas.Screen,11_15_4,2022-12-26T14:30:13.417Z,,,b,,,270,500.3999999999942,timeout,e.jpg,,,183823.40000000037,183821.184,183320.784,183325.40000000037,183337.464,183837.864,
トライアル,flow.Sequence,11_15,2022-12-26T14:30:13.417Z,,,b,,,270,3119.1600000000035,completion,e.jpg,,,183823.7999999998,183821.184,180651.984,180654.90000000037,180702.024,183837.864,
タスクのセット,flow.Loop,11,2022-12-26T14:30:13.418Z,,,,,,,52226.37400000001,completion,,,,183824.09999999963,183821.184,131578.13,131581,131594.81,183837.864,
空白時間1 (0.5秒),canvas.Screen,12_0_0,2022-12-26T14:30:13.918Z,,,d,,,270,517.0799999999872,timeout,eR.jpg,,,184324.2000000002,184321.584,183821.184,183824.40000000037,183837.864,184354.944,
注視(1秒),canvas.Screen,12_0_1,2022-12-26T14:30:14.935Z,,,d,,,270,1000.8000000000175,timeout,eR.jpg,,,185341.2999999998,185339.064,184321.584,184324.5,184354.944,185355.744,
空白時間2 (0.5秒),canvas.Screen,12_0_2,2022-12-26T14:30:15.436Z,,,d,,,270,500.3999999999942,timeout,eR.jpg,,,185842.2999999998,185839.464,185339.064,185341.59999999963,185355.744,185856.144,
刺激提示,canvas.Screen,12_0_3,2022-12-26T14:30:15.922Z,,,d,true,d,270,464.35599999999977,response,eR.jpg,d,keypress(j),186328.59999999963,186320.5,185839.464,185842.5,185856.144,186389.904,
フィードバック(0.5秒),canvas.Screen,12_0_4,2022-12-26T14:30:16.468Z,,,d,,,270,500.6479999999865,timeout,eR.jpg,,,186874.90000000037,186873.872,186373.224,186330.90000000037,186389.904,186890.552,
トライアル,flow.Sequence,12_0,2022-12-26T14:30:16.469Z,,,d,,,270,3036.0080000000016,completion,eR.jpg,,,186875.2000000002,186873.872,183821.184,183824.2999999998,183837.864,186890.552,
空白時間1 (0.5秒),canvas.Screen,12_1_0,2022-12-26T14:30:16.970Z,,,d,,,315,517.0800000000163,timeout,eR.jpg,,,187376.2000000002,187374.272,186873.872,186875.5,186890.552,187407.632,
注視(1秒),canvas.Screen,12_1_1,2022-12-26T14:30:17.988Z,,,d,,,315,1017.4799999999814,timeout,eR.jpg,,,188394.90000000037,188391.752,187374.272,187376.59999999963,187407.632,188425.112,
空白時間2 (0.5秒),canvas.Screen,12_1_2,2022-12-26T14:30:18.504Z,,,d,,,315,500.3999999999942,timeout,eR.jpg,,,188911.2000000002,188908.832,188391.752,188395.2000000002,188425.112,188925.512,
刺激提示,canvas.Screen,12_1_3,2022-12-26T14:30:18.982Z,,,d,true,d,315,455.1880000001984,response,eR.jpg,d,keypress(j),189388.2999999998,189380.7000000002,188908.832,188911.2999999998,188925.512,189425.912,
フィードバック(0.5秒),canvas.Screen,12_1_4,2022-12-26T14:30:19.505Z,,,d,,,315,500.3999999999942,timeout,eR.jpg,,,189912.2999999998,189909.632,189409.232,189415.40000000037,189425.912,189926.312,
トライアル,flow.Sequence,12_1,2022-12-26T14:30:19.506Z,,,d,,,315,3019.0800000000163,completion,eR.jpg,,,189912.40000000037,189909.632,186873.872,186875.40000000037,186890.552,189926.312,
空白時間1 (0.5秒),canvas.Screen,12_2_0,2022-12-26T14:30:20.005Z,,,b,,,270,500.3999999999942,timeout,e.jpg,,,190412.09999999963,190410.032,189909.632,189912.5,189926.312,190426.712,
注視(1秒),canvas.Screen,12_2_1,2022-12-26T14:30:21.006Z,,,b,,,270,1017.4800000000105,timeout,e.jpg,,,191413.09999999963,191410.832,190410.032,190412.40000000037,190426.712,191444.192,
空白時間2 (0.5秒),canvas.Screen,12_2_2,2022-12-26T14:30:21.523Z,,,b,,,270,500.3999999999942,timeout,e.jpg,,,191929.5,191927.912,191410.832,191413.2999999998,191444.192,191944.592,
刺激提示,canvas.Screen,12_2_3,2022-12-26T14:30:21.951Z,,,b,true,b,270,406.1080000001821,response,e.jpg,b,keypress(f),192358.40000000037,192350.7000000002,191927.912,191929.7000000002,191944.592,192411.632,
フィードバック(0.5秒),canvas.Screen,12_2_4,2022-12-26T14:30:22.491Z,,,b,,,270,517.0799999999872,timeout,e.jpg,,,192897.5,192895.352,192394.952,192360.2000000002,192411.632,192928.712,
トライアル,flow.Sequence,12_2,2022-12-26T14:30:22.491Z,,,b,,,270,2969.040000000008,completion,e.jpg,,,192898,192895.352,189909.632,189912.5,189926.312,192928.712,
空白時間1 (0.5秒),canvas.Screen,12_3_0,2022-12-26T14:30:23.007Z,,,b,,,90,517.0799999999872,timeout,e.jpg,,,193413.90000000037,193412.432,192895.352,192898.40000000037,192928.712,193445.792,
注視(1秒),canvas.Screen,12_3_1,2022-12-26T14:30:24.025Z,,,b,,,90,1000.8000000000175,timeout,e.jpg,,,194431.7000000002,194429.912,193412.432,193414.2000000002,193445.792,194446.592,
空白時間2 (0.5秒),canvas.Screen,12_3_2,2022-12-26T14:30:24.525Z,,,b,,,90,500.3999999999942,timeout,e.jpg,,,194932,194930.312,194429.912,194432,194446.592,194946.992,
刺激提示,canvas.Screen,12_3_3,2022-12-26T14:30:25.001Z,,,b,false,b,90,452.40800000037416,response,e.jpg,d,keypress(j),195407.7000000002,195399.40000000037,194930.312,194932.2999999998,194946.992,195464.072,
フィードバック(0.5秒),canvas.Screen,12_3_4,2022-12-26T14:30:25.543Z,,,b,,,90,517.0800000000163,timeout,e.jpg,,,195949.7000000002,195947.792,195447.392,195445.90000000037,195464.072,195981.152,
トライアル,flow.Sequence,12_3,2022-12-26T14:30:25.543Z,,,b,,,90,3019.079999999987,completion,e.jpg,,,195950.09999999963,195947.792,192895.352,192898.2999999998,192928.712,195981.152,
空白時間1 (0.5秒),canvas.Screen,12_4_0,2022-12-26T14:30:26.060Z,,,d,,,180,500.3999999999942,timeout,eR.jpg,,,196467.2999999998,196464.872,195947.792,195950.2999999998,195981.152,196481.552,
注視(1秒),canvas.Screen,12_4_1,2022-12-26T14:30:27.060Z,,,d,,,180,1001.0500000000175,timeout,eR.jpg,,,197466.90000000037,197465.922,196464.872,196468.09999999963,196481.552,197482.602,
空白時間2 (0.5秒),canvas.Screen,12_4_2,2022-12-26T14:30:27.562Z,,,d,,,180,533.7599999999802,timeout,eR.jpg,,,197969,197966.322,197465.922,197467.09999999963,197482.602,198016.362,
刺激提示,canvas.Screen,12_4_3,2022-12-26T14:30:28.939Z,,,d,true,d,180,1320.93799999982,response,eR.jpg,d,keypress(j),199345.7000000002,199337.2999999998,197966.322,198024.7999999998,198016.362,199350.762,
フィードバック(0.5秒),canvas.Screen,12_4_4,2022-12-26T14:30:29.429Z,,,d,,,180,500.4000000000233,timeout,eR.jpg,,,199835.7999999998,199834.482,199334.082,199347.2999999998,199350.762,199851.162,
トライアル,flow.Sequence,12_4,2022-12-26T14:30:29.429Z,,,d,,,180,3853.329999999987,completion,eR.jpg,,,199836.09999999963,199834.482,195947.792,195950.2999999998,195981.152,199851.162,
空白時間1 (0.5秒),canvas.Screen,12_5_0,2022-12-26T14:30:29.930Z,,,b,,,225,533.7599999999802,timeout,e.jpg,,,200337,200334.882,199834.482,199836.2999999998,199851.162,200384.922,
注視(1秒),canvas.Screen,12_5_1,2022-12-26T14:30:30.962Z,,,b,,,225,1000.8000000000175,timeout,e.jpg,,,201369.7000000002,201369.042,200334.882,200337.09999999963,200384.922,201385.722,
空白時間2 (0.5秒),canvas.Screen,12_5_2,2022-12-26T14:30:31.464Z,,,b,,,225,517.0799999999872,timeout,e.jpg,,,201871.09999999963,201869.442,201369.042,201369.7000000002,201385.722,201902.802,
刺激提示,canvas.Screen,12_5_3,2022-12-26T14:30:32.230Z,,,b,true,b,225,730.198000000004,response,e.jpg,b,keypress(f),202637.2000000002,202633,201869.442,201871.2000000002,201902.802,202653.402,
フィードバック(0.5秒),canvas.Screen,12_5_4,2022-12-26T14:30:32.732Z,,,b,,,225,533.7600000000093,timeout,e.jpg,,,203139.2000000002,203137.122,202636.722,202648.5,202653.402,203187.162,
トライアル,flow.Sequence,12_5,2022-12-26T14:30:32.732Z,,,b,,,225,3285.959999999992,completion,e.jpg,,,203139.59999999963,203137.122,199834.482,199836.2000000002,199851.162,203187.162,
空白時間1 (0.5秒),canvas.Screen,12_6_0,2022-12-26T14:30:33.266Z,,,d,,,45,517.0799999999872,timeout,eR.jpg,,,203673.2999999998,203670.882,203137.122,203139.7999999998,203187.162,203704.242,
注視(1秒),canvas.Screen,12_6_1,2022-12-26T14:30:34.283Z,,,d,,,45,1000.7999999999884,timeout,eR.jpg,,,204690.40000000037,204688.362,203670.882,203673.5,203704.242,204705.042,
空白時間2 (0.5秒),canvas.Screen,12_6_2,2022-12-26T14:30:34.783Z,,,d,,,45,500.4000000000233,timeout,eR.jpg,,,205190.40000000037,205188.762,204688.362,204690.7000000002,204705.042,205205.442,
刺激提示,canvas.Screen,12_6_3,2022-12-26T14:30:35.326Z,,,d,true,d,45,521.6579999996175,response,eR.jpg,d,keypress(j),205733.5,205727.09999999963,205188.762,205190.5,205205.442,205805.922,
フィードバック(0.5秒),canvas.Screen,12_6_4,2022-12-26T14:30:35.884Z,,,d,,,45,517.0800000000163,timeout,eR.jpg,,,206291.2000000002,206289.642,205789.242,205755.2999999998,205805.922,206323.002,
トライアル,flow.Sequence,12_6,2022-12-26T14:30:35.884Z,,,d,,,45,3102.4799999999814,completion,eR.jpg,,,206291.59999999963,206289.642,203137.122,203139.7999999998,203187.162,206323.002,
空白時間1 (0.5秒),canvas.Screen,12_7_0,2022-12-26T14:30:36.401Z,,,d,,,225,517.0799999999872,timeout,eR.jpg,,,206808.7999999998,206806.722,206289.642,206291.7000000002,206323.002,206840.082,
注視(1秒),canvas.Screen,12_7_1,2022-12-26T14:30:37.419Z,,,d,,,225,1017.7369999999937,timeout,eR.jpg,,,207826.2000000002,207824.459,206806.722,206809.09999999963,206840.082,207857.819,
空白時間2 (0.5秒),canvas.Screen,12_7_2,2022-12-26T14:30:37.936Z,,,d,,,225,517.0800000000163,timeout,eR.jpg,,,208343.2999999998,208341.539,207824.459,207826.40000000037,207857.819,208374.899,
刺激提示,canvas.Screen,12_7_3,2022-12-26T14:30:38.770Z,,,d,true,d,225,795.0010000003676,response,eR.jpg,d,keypress(j),209177.7000000002,209169.90000000037,208341.539,208343.5,208374.899,209192.219,
フィードバック(0.5秒),canvas.Screen,12_7_4,2022-12-26T14:30:39.271Z,,,d,,,225,500.3999999999942,timeout,eR.jpg,,,209678.5,209675.939,209175.539,209179.09999999963,209192.219,209692.619,
トライアル,flow.Sequence,12_7,2022-12-26T14:30:39.271Z,,,d,,,225,3352.9370000000054,completion,eR.jpg,,,209678.7999999998,209675.939,206289.642,206291.7000000002,206323.002,209692.619,
空白時間1 (0.5秒),canvas.Screen,12_8_0,2022-12-26T14:30:39.770Z,,,b,,,135,500.3999999999942,timeout,e.jpg,,,210177.59999999963,210176.339,209675.939,209679,209692.619,210193.019,
注視(1秒),canvas.Screen,12_8_1,2022-12-26T14:30:40.771Z,,,b,,,135,1000.7999999999884,timeout,e.jpg,,,211178.59999999963,211177.139,210176.339,210177.7999999998,210193.019,211193.819,
空白時間2 (0.5秒),canvas.Screen,12_8_2,2022-12-26T14:30:41.272Z,,,b,,,135,533.7600000000093,timeout,e.jpg,,,211679.2999999998,211677.539,211177.139,211178.90000000037,211193.819,211727.579,
刺激提示,canvas.Screen,12_8_3,2022-12-26T14:30:41.943Z,,,b,true,b,135,614.8210000003746,response,e.jpg,b,keypress(f),212350.40000000037,212342.40000000037,211677.539,211679.5,211727.579,212378.099,
フィードバック(0.5秒),canvas.Screen,12_8_4,2022-12-26T14:30:42.457Z,,,b,,,135,533.7600000000093,timeout,e.jpg,,,212864.5,212861.819,212361.419,212364.5,212378.099,212911.859,
トライアル,flow.Sequence,12_8,2022-12-26T14:30:42.457Z,,,b,,,135,3169.1999999999825,completion,e.jpg,,,212864.90000000037,212861.819,209675.939,209679,209692.619,212911.859,
空白時間1 (0.5秒),canvas.Screen,12_9_0,2022-12-26T14:30:42.990Z,,,b,,,0,500.3999999999942,timeout,e.jpg,,,213397.7000000002,213395.579,212861.819,212865.2000000002,212911.859,213412.259,
注視(1秒),canvas.Screen,12_9_1,2022-12-26T14:30:43.991Z,,,b,,,0,1000.8000000000175,timeout,e.jpg,,,214398.59999999963,214396.379,213395.579,213398,213412.259,214413.059,
空白時間2 (0.5秒),canvas.Screen,12_9_2,2022-12-26T14:30:44.490Z,,,b,,,0,533.7599999999802,timeout,e.jpg,,,214897.59999999963,214896.779,214396.379,214398.7999999998,214413.059,214946.819,
刺激提示,canvas.Screen,12_9_3,2022-12-26T14:30:45.015Z,,,b,true,b,0,466.7809999996389,response,e.jpg,b,keypress(f),215423.09999999963,215413.59999999963,214896.779,214897.7999999998,214946.819,215447.219,
フィードバック(0.5秒),canvas.Screen,12_9_4,2022-12-26T14:30:45.525Z,,,b,,,0,500.3999999999942,timeout,e.jpg,,,215932.5,215930.939,215430.539,215434.90000000037,215447.219,215947.619,
トライアル,flow.Sequence,12_9,2022-12-26T14:30:45.525Z,,,b,,,0,3019.0800000000163,completion,e.jpg,,,215932.7000000002,215930.939,212861.819,212865.09999999963,212911.859,215947.619,
空白時間1 (0.5秒),canvas.Screen,12_10_0,2022-12-26T14:30:46.026Z,,,d,,,0,500.3999999999942,timeout,eR.jpg,,,216433.40000000037,216431.339,215930.939,215932.90000000037,215947.619,216448.019,
注視(1秒),canvas.Screen,12_10_1,2022-12-26T14:30:47.026Z,,,d,,,0,1000.7999999999884,timeout,eR.jpg,,,217434.2999999998,217432.139,216431.339,216433.7000000002,216448.019,217448.819,
空白時間2 (0.5秒),canvas.Screen,12_10_2,2022-12-26T14:30:47.527Z,,,d,,,0,534.0230000000156,timeout,eR.jpg,,,217935.09999999963,217932.802,217432.139,217434.5,217448.819,217982.842,
刺激提示,canvas.Screen,12_10_3,2022-12-26T14:30:48.063Z,,,d,true,d,0,479.6579999999958,response,eR.jpg,d,keypress(j),218470.7999999998,218462.5,217932.802,217935.2999999998,217982.842,218483.242,
フィードバック(0.5秒),canvas.Screen,12_10_4,2022-12-26T14:30:48.561Z,,,d,,,0,517.0799999999872,timeout,eR.jpg,,,218969.09999999963,218966.962,218466.562,218472.7000000002,218483.242,219000.322,
トライアル,flow.Sequence,12_10,2022-12-26T14:30:48.561Z,,,d,,,0,3019.3429999999935,completion,eR.jpg,,,218969.40000000037,218966.962,215930.939,215932.90000000037,215947.619,219000.322,
空白時間1 (0.5秒),canvas.Screen,12_11_0,2022-12-26T14:30:49.078Z,,,b,,,315,500.4000000000233,timeout,e.jpg,,,219486.09999999963,219484.042,218966.962,218969.59999999963,219000.322,219500.722,
注視(1秒),canvas.Screen,12_11_1,2022-12-26T14:30:50.079Z,,,b,,,315,1000.7999999999884,timeout,e.jpg,,,220486.7000000002,220484.842,219484.042,219486.40000000037,219500.722,220501.522,
空白時間2 (0.5秒),canvas.Screen,12_11_2,2022-12-26T14:30:50.578Z,,,b,,,315,533.7600000000093,timeout,e.jpg,,,220986.5,220985.242,220484.842,220486.90000000037,220501.522,221035.282,
刺激提示,canvas.Screen,12_11_3,2022-12-26T14:30:51.108Z,,,b,true,b,315,476.0179999998072,response,e.jpg,b,keypress(f),221516.40000000037,221511.2999999998,220985.242,220986.59999999963,221035.282,221535.682,
フィードバック(0.5秒),canvas.Screen,12_11_4,2022-12-26T14:30:51.614Z,,,b,,,315,500.3999999999942,timeout,e.jpg,,,222022.5,222019.402,221519.002,221528,221535.682,222036.082,
トライアル,flow.Sequence,12_11,2022-12-26T14:30:51.615Z,,,b,,,315,3019.0800000000163,completion,e.jpg,,,222022.7000000002,222019.402,218966.962,218969.59999999963,219000.322,222036.082,
空白時間1 (0.5秒),canvas.Screen,12_12_0,2022-12-26T14:30:52.114Z,,,d,,,135,500.3999999999942,timeout,eR.jpg,,,222522,222519.802,222019.402,222022.7999999998,222036.082,222536.482,
注視(1秒),canvas.Screen,12_12_1,2022-12-26T14:30:53.114Z,,,d,,,135,1000.8000000000175,timeout,eR.jpg,,,223521.7000000002,223520.602,222519.802,222522.2999999998,222536.482,223537.282,
空白時間2 (0.5秒),canvas.Screen,12_12_2,2022-12-26T14:30:53.616Z,,,d,,,135,500.3999999999942,timeout,eR.jpg,,,224023.90000000037,224021.002,223520.602,223522,223537.282,224037.682,
刺激提示,canvas.Screen,12_12_3,2022-12-26T14:30:54.183Z,,,d,true,d,135,544.8179999999993,response,eR.jpg,d,keypress(j),224590.7999999998,224582.5,224021.002,224024.7999999998,224037.682,224604.802,
フィードバック(0.5秒),canvas.Screen,12_12_4,2022-12-26T14:30:54.682Z,,,d,,,135,500.3999999999942,timeout,eR.jpg,,,225090.5,225088.522,224588.122,224592.2000000002,224604.802,225105.202,
トライアル,flow.Sequence,12_12,2022-12-26T14:30:54.683Z,,,d,,,135,3052.4400000000023,completion,eR.jpg,,,225090.90000000037,225088.522,222019.402,222022.7999999998,222036.082,225105.202,
空白時間1 (0.5秒),canvas.Screen,12_13_0,2022-12-26T14:30:55.182Z,,,d,,,90,533.7600000000093,timeout,eR.jpg,,,225590.59999999963,225588.922,225088.522,225091.09999999963,225105.202,225638.962,
注視(1秒),canvas.Screen,12_13_1,2022-12-26T14:30:56.217Z,,,d,,,90,1000.7999999999884,timeout,eR.jpg,,,226625.2999999998,226623.082,225588.922,225590.7999999998,225638.962,226639.762,
空白時間2 (0.5秒),canvas.Screen,12_13_2,2022-12-26T14:30:56.717Z,,,d,,,90,500.4000000000233,timeout,eR.jpg,,,227125.40000000037,227123.482,226623.082,226625.59999999963,226639.762,227140.162,
刺激提示,canvas.Screen,12_13_3,2022-12-26T14:30:57.300Z,,,d,true,d,90,558.7380000003614,response,eR.jpg,d,keypress(j),227708,227698.90000000037,227123.482,227125.59999999963,227140.162,227774.002,
フィードバック(0.5秒),canvas.Screen,12_13_4,2022-12-26T14:30:57.852Z,,,d,,,90,517.3379999999888,timeout,eR.jpg,,,228259.90000000037,228257.98,227757.322,227731.90000000037,227774.002,228291.34,
トライアル,flow.Sequence,12_13,2022-12-26T14:30:57.852Z,,,d,,,90,3152.7780000000203,completion,eR.jpg,,,228260.40000000037,228257.98,225088.522,225091,225105.202,228291.34,
空白時間1 (0.5秒),canvas.Screen,12_14_0,2022-12-26T14:30:58.369Z,,,b,,,45,500.3999999999942,timeout,e.jpg,,,228777.59999999963,228775.06,228257.98,228260.59999999963,228291.34,228791.74,
注視(1秒),canvas.Screen,12_14_1,2022-12-26T14:30:59.370Z,,,b,,,45,1000.8000000000175,timeout,e.jpg,,,229778.2000000002,229775.86,228775.06,228777.90000000037,228791.74,229792.54,
空白時間2 (0.5秒),canvas.Screen,12_14_2,2022-12-26T14:30:59.869Z,,,b,,,45,500.3999999999942,timeout,e.jpg,,,230277.40000000037,230276.26,229775.86,229778.40000000037,229792.54,230292.94,
刺激提示,canvas.Screen,12_14_3,2022-12-26T14:31:00.366Z,,,b,true,b,45,476.9600000003702,response,e.jpg,b,keypress(f),230774.09999999963,230769.90000000037,230276.26,230277.5,230292.94,230776.66,
フィードバック(0.5秒),canvas.Screen,12_14_4,2022-12-26T14:31:00.854Z,,,b,,,45,500.3999999999942,timeout,e.jpg,,,231262.7000000002,231260.38,230759.98,230775,230776.66,231277.06,
トライアル,flow.Sequence,12_14,2022-12-26T14:31:00.854Z,,,b,,,45,2969.040000000008,completion,e.jpg,,,231262.90000000037,231260.38,228257.98,228260.5,228291.34,231277.06,
空白時間1 (0.5秒),canvas.Screen,12_15_0,2022-12-26T14:31:01.354Z,,,b,,,180,533.7600000000093,timeout,e.jpg,,,231762.59999999963,231760.78,231260.38,231262.90000000037,231277.06,231810.82,
注視(1秒),canvas.Screen,12_15_1,2022-12-26T14:31:02.388Z,,,b,,,180,1000.7999999999884,timeout,e.jpg,,,232796.7000000002,232794.94,231760.78,231762.59999999963,231810.82,232811.62,
空白時間2 (0.5秒),canvas.Screen,12_15_2,2022-12-26T14:31:02.888Z,,,b,,,180,500.3999999999942,timeout,e.jpg,,,233296.90000000037,233295.34,232794.94,232796.90000000037,232811.62,233312.02,
刺激提示,canvas.Screen,12_15_3,2022-12-26T14:31:03.688Z,,,b,true,b,180,776.9800000000105,response,e.jpg,b,keypress(f),234096.59999999963,234089,233295.34,233297.09999999963,233312.02,234162.7,
フィードバック(0.5秒),canvas.Screen,12_15_4,2022-12-26T14:31:04.240Z,,,b,,,180,517.0799999999872,timeout,e.jpg,,,234648.7000000002,234646.42,234146.02,234118.7999999998,234162.7,234679.78,
トライアル,flow.Sequence,12_15,2022-12-26T14:31:04.240Z,,,b,,,180,3369.360000000015,completion,e.jpg,,,234649.09999999963,234646.42,231260.38,231262.90000000037,231277.06,234679.78,
タスクのセット,flow.Loop,12,2022-12-26T14:31:04.241Z,,,,,,,50808.55600000001,completion,,,,234649.2999999998,234646.42,183821.184,183824.2000000002,183837.864,234679.78,
空白時間1 (0.5秒),canvas.Screen,13_0_0,2022-12-26T14:31:04.756Z,,,d,,,225,500.3999999999942,timeout,eR.jpg,,,235165,235163.5,234646.42,234649.59999999963,234679.78,235180.18,
注視(1秒),canvas.Screen,13_0_1,2022-12-26T14:31:05.758Z,,,d,,,225,1000.8000000000175,timeout,eR.jpg,,,236166.90000000037,236164.3,235163.5,235165.09999999963,235180.18,236180.98,
空白時間2 (0.5秒),canvas.Screen,13_0_2,2022-12-26T14:31:06.258Z,,,d,,,225,500.3999999999942,timeout,eR.jpg,,,236667,236664.7,236164.3,236167.2999999998,236180.98,236681.38,
刺激提示,canvas.Screen,13_0_3,2022-12-26T14:31:07.119Z,,,d,true,d,225,839.0200000003679,response,eR.jpg,d,keypress(j),237527.90000000037,237520.40000000037,236664.7,236667.2000000002,236681.38,237598.78,
フィードバック(0.5秒),canvas.Screen,13_0_4,2022-12-26T14:31:07.676Z,,,d,,,225,517.0799999999872,timeout,eR.jpg,,,238085.09999999963,238082.5,237582.1,237550.2000000002,237598.78,238115.86,
トライアル,flow.Sequence,13_0,2022-12-26T14:31:07.677Z,,,d,,,225,3402.720000000001,completion,eR.jpg,,,238085.5,238082.5,234646.42,234649.59999999963,234679.78,238115.86,
空白時間1 (0.5秒),canvas.Screen,13_1_0,2022-12-26T14:31:08.193Z,,,d,,,315,500.65500000002794,timeout,eR.jpg,,,238601.5,238599.835,238082.5,238085.7999999998,238115.86,238616.515,
注視(1秒),canvas.Screen,13_1_1,2022-12-26T14:31:09.194Z,,,d,,,315,1000.7999999999884,timeout,eR.jpg,,,239603.09999999963,239600.635,238599.835,238601.7999999998,238616.515,239617.315,
空白時間2 (0.5秒),canvas.Screen,13_1_2,2022-12-26T14:31:09.694Z,,,d,,,315,517.0799999999872,timeout,eR.jpg,,,240103,240101.035,239600.635,239603.40000000037,239617.315,240134.395,
刺激提示,canvas.Screen,13_1_3,2022-12-26T14:31:10.282Z,,,d,true,d,315,547.3050000001967,response,eR.jpg,d,keypress(j),240690.5,240681.7000000002,240101.035,240103.2000000002,240134.395,240701.515,
フィードバック(0.5秒),canvas.Screen,13_1_4,2022-12-26T14:31:10.779Z,,,d,,,315,500.3999999999942,timeout,eR.jpg,,,241187.7999999998,241185.235,240684.835,240692.5,240701.515,241201.915,
トライアル,flow.Sequence,13_1,2022-12-26T14:31:10.779Z,,,d,,,315,3069.375,completion,eR.jpg,,,241188.2000000002,241185.235,238082.5,238085.59999999963,238115.86,241201.915,
空白時間1 (0.5秒),canvas.Screen,13_2_0,2022-12-26T14:31:11.278Z,,,d,,,0,500.3999999999942,timeout,eR.jpg,,,241686.7000000002,241685.635,241185.235,241188.5,241201.915,241702.315,
注視(1秒),canvas.Screen,13_2_1,2022-12-26T14:31:12.279Z,,,d,,,0,1000.7999999999884,timeout,eR.jpg,,,242688.09999999963,242686.435,241685.635,241686.7999999998,241702.315,242703.115,
空白時間2 (0.5秒),canvas.Screen,13_2_2,2022-12-26T14:31:12.780Z,,,d,,,0,533.7600000000093,timeout,eR.jpg,,,243188.7999999998,243186.835,242686.435,242688.40000000037,242703.115,243236.875,
刺激提示,canvas.Screen,13_2_3,2022-12-26T14:31:13.319Z,,,d,true,d,0,482.42499999981374,response,eR.jpg,d,keypress(j),243728.5,243719.2999999998,243186.835,243189.09999999963,243236.875,243753.955,
フィードバック(0.5秒),canvas.Screen,13_2_4,2022-12-26T14:31:13.830Z,,,d,,,0,500.4000000000233,timeout,eR.jpg,,,244239.5,244237.675,243737.275,243741,243753.955,244254.355,
トライアル,flow.Sequence,13_2,2022-12-26T14:31:13.831Z,,,d,,,0,3035.75999999998,completion,eR.jpg,,,244239.7999999998,244237.675,241185.235,241188.40000000037,241201.915,244254.355,
空白時間1 (0.5秒),canvas.Screen,13_3_0,2022-12-26T14:31:14.331Z,,,d,,,90,500.3999999999942,timeout,eR.jpg,,,244739.59999999963,244738.075,244237.675,244240.09999999963,244254.355,244754.755,
注視(1秒),canvas.Screen,13_3_1,2022-12-26T14:31:15.332Z,,,d,,,90,1000.7999999999884,timeout,eR.jpg,,,245741.40000000037,245738.875,244738.075,244739.90000000037,244754.755,245755.555,
空白時間2 (0.5秒),canvas.Screen,13_3_2,2022-12-26T14:31:15.832Z,,,d,,,90,533.7600000000093,timeout,eR.jpg,,,246240.7999999998,246239.275,245738.875,245741.59999999963,245755.555,246289.315,
刺激提示,canvas.Screen,13_3_3,2022-12-26T14:31:16.420Z,,,d,true,d,90,534.8850000001839,response,eR.jpg,d,keypress(j),246829.2000000002,246824.2000000002,246239.275,246241,246289.315,246839.755,
フィードバック(0.5秒),canvas.Screen,13_3_4,2022-12-26T14:31:16.917Z,,,d,,,90,500.3999999999942,timeout,eR.jpg,,,247326.2000000002,247323.475,246823.075,246830.2999999998,246839.755,247340.155,
トライアル,flow.Sequence,13_3,2022-12-26T14:31:16.917Z,,,d,,,90,3069.1199999999953,completion,eR.jpg,,,247326.5,247323.475,244237.675,244240,244254.355,247340.155,
空白時間1 (0.5秒),canvas.Screen,13_4_0,2022-12-26T14:31:17.416Z,,,d,,,45,517.0799999999872,timeout,eR.jpg,,,247825.59999999963,247823.875,247323.475,247326.59999999963,247340.155,247857.235,
注視(1秒),canvas.Screen,13_4_1,2022-12-26T14:31:18.434Z,,,d,,,45,1017.4800000000105,timeout,eR.jpg,,,248843.09999999963,248841.355,247823.875,247825.90000000037,247857.235,248874.715,
空白時間2 (0.5秒),canvas.Screen,13_4_2,2022-12-26T14:31:18.952Z,,,d,,,45,500.66700000001583,timeout,eR.jpg,,,249360.90000000037,249358.702,248841.355,248843.40000000037,248874.715,249375.382,
刺激提示,canvas.Screen,13_4_3,2022-12-26T14:31:19.404Z,,,d,true,d,45,430.4179999998014,response,eR.jpg,d,keypress(j),249812.90000000037,249805.7999999998,249358.702,249361.2000000002,249375.382,249875.782,
フィードバック(0.5秒),canvas.Screen,13_4_4,2022-12-26T14:31:19.953Z,,,d,,,45,517.0799999999872,timeout,eR.jpg,,,250362.2000000002,250359.502,249859.102,249836.2000000002,249875.782,250392.862,
トライアル,flow.Sequence,13_4,2022-12-26T14:31:19.953Z,,,d,,,45,3019.347000000009,completion,eR.jpg,,,250362.59999999963,250359.502,247323.475,247326.59999999963,247340.155,250392.862,
空白時間1 (0.5秒),canvas.Screen,13_5_0,2022-12-26T14:31:20.470Z,,,b,,,90,500.3999999999942,timeout,e.jpg,,,250879.5,250876.582,250359.502,250362.7999999998,250392.862,250893.262,
注視(1秒),canvas.Screen,13_5_1,2022-12-26T14:31:21.469Z,,,b,,,90,1017.4800000000105,timeout,e.jpg,,,251878.7999999998,251877.382,250876.582,250879.7999999998,250893.262,251910.742,
空白時間2 (0.5秒),canvas.Screen,13_5_2,2022-12-26T14:31:21.987Z,,,b,,,90,500.3999999999942,timeout,e.jpg,,,252396.09999999963,252394.462,251877.382,251879,251910.742,252411.142,
刺激提示,canvas.Screen,13_5_3,2022-12-26T14:31:22.487Z,,,b,true,b,90,477.1579999998212,response,e.jpg,b,keypress(f),252896.40000000037,252888.2999999998,252394.462,252396.2000000002,252411.142,252944.902,
フィードバック(0.5秒),canvas.Screen,13_5_4,2022-12-26T14:31:23.021Z,,,b,,,90,500.3999999999942,timeout,e.jpg,,,253431,253428.622,252928.222,252898.7000000002,252944.902,253445.302,
トライアル,flow.Sequence,13_5,2022-12-26T14:31:23.022Z,,,b,,,90,3035.7600000000093,completion,e.jpg,,,253431.2999999998,253428.622,250359.502,250362.7000000002,250392.862,253445.302,
空白時間1 (0.5秒),canvas.Screen,13_6_0,2022-12-26T14:31:23.522Z,,,b,,,135,517.0800000000163,timeout,e.jpg,,,253931.2000000002,253929.022,253428.622,253431.59999999963,253445.302,253962.382,
注視(1秒),canvas.Screen,13_6_1,2022-12-26T14:31:24.539Z,,,b,,,135,1017.4799999999814,timeout,e.jpg,,,254948.09999999963,254946.502,253929.022,253931.5,253962.382,254979.862,
空白時間2 (0.5秒),canvas.Screen,13_6_2,2022-12-26T14:31:25.055Z,,,b,,,135,500.3999999999942,timeout,e.jpg,,,255465,255463.582,254946.502,254948.2999999998,254979.862,255480.262,
刺激提示,canvas.Screen,13_6_3,2022-12-26T14:31:25.738Z,,,b,true,b,135,659.4380000001984,response,e.jpg,b,keypress(f),256147.40000000037,256139.7000000002,255463.582,255465.40000000037,255480.262,256164.142,
フィードバック(0.5秒),canvas.Screen,13_6_4,2022-12-26T14:31:26.240Z,,,b,,,135,517.0800000000163,timeout,e.jpg,,,256649.59999999963,256647.862,256147.462,256160.40000000037,256164.142,256681.222,
トライアル,flow.Sequence,13_6,2022-12-26T14:31:26.240Z,,,b,,,135,3202.5599999999977,completion,e.jpg,,,256650,256647.862,253428.622,253431.5,253445.302,256681.222,
空白時間1 (0.5秒),canvas.Screen,13_7_0,2022-12-26T14:31:26.758Z,,,b,,,270,500.3999999999942,timeout,e.jpg,,,257167.2999999998,257164.942,256647.862,256650.09999999963,256681.222,257181.622,
注視(1秒),canvas.Screen,13_7_1,2022-12-26T14:31:27.778Z,,,b,,,270,1000.7999999999884,timeout,e.jpg,,,258187.7000000002,258165.742,257164.942,257167.59999999963,257181.622,258182.422,
空白時間2 (0.5秒),canvas.Screen,13_7_2,2022-12-26T14:31:28.258Z,,,b,,,270,533.7600000000093,timeout,e.jpg,,,258667.7000000002,258666.142,258165.742,258187.7999999998,258182.422,258716.182,
刺激提示,canvas.Screen,13_7_3,2022-12-26T14:31:28.900Z,,,b,true,b,270,584.9179999996268,response,e.jpg,b,keypress(f),259309.5,259301.09999999963,258666.142,258667.90000000037,258716.182,259316.662,
フィードバック(0.5秒),canvas.Screen,13_7_4,2022-12-26T14:31:29.393Z,,,b,,,270,517.3389999999781,timeout,e.jpg,,,259802.7000000002,259800.641,259299.982,259311.2000000002,259316.662,259834.001,
トライアル,flow.Sequence,13_7,2022-12-26T14:31:29.393Z,,,b,,,270,3119.4189999999944,completion,e.jpg,,,259803.2000000002,259800.641,256647.862,256650,256681.222,259834.001,
空白時間1 (0.5秒),canvas.Screen,13_8_0,2022-12-26T14:31:29.909Z,,,b,,,225,500.4000000000233,timeout,e.jpg,,,260318.59999999963,260317.721,259800.641,259803.2999999998,259834.001,260334.401,
注視(1秒),canvas.Screen,13_8_1,2022-12-26T14:31:30.910Z,,,b,,,225,1000.7999999999884,timeout,e.jpg,,,261320.09999999963,261318.521,260317.721,260318.7999999998,260334.401,261335.201,
空白時間2 (0.5秒),canvas.Screen,13_8_2,2022-12-26T14:31:31.413Z,,,b,,,225,500.3999999999942,timeout,e.jpg,,,261822.7000000002,261818.921,261318.521,261320.2000000002,261335.201,261835.601,
刺激提示,canvas.Screen,13_8_3,2022-12-26T14:31:32.123Z,,,b,true,b,225,693.6989999998186,response,e.jpg,b,keypress(f),262533.2999999998,262529.2999999998,261818.921,261822.7999999998,261835.601,262552.841,
フィードバック(0.5秒),canvas.Screen,13_8_4,2022-12-26T14:31:32.629Z,,,b,,,225,500.3999999999651,timeout,e.jpg,,,263038.5,263036.561,262536.161,262544.2000000002,262552.841,263053.241,
トライアル,flow.Sequence,13_8,2022-12-26T14:31:32.629Z,,,b,,,225,3202.5599999999977,completion,e.jpg,,,263038.7000000002,263036.561,259800.641,259803.2999999998,259834.001,263053.241,
空白時間1 (0.5秒),canvas.Screen,13_9_0,2022-12-26T14:31:33.129Z,,,b,,,45,533.7600000000093,timeout,e.jpg,,,263539.0999999996,263536.961,263036.561,263038.9000000004,263053.241,263587.001,
注視(1秒),canvas.Screen,13_9_1,2022-12-26T14:31:34.163Z,,,b,,,45,1000.7999999999884,timeout,e.jpg,,,264573,264571.121,263536.961,263539.4000000004,263587.001,264587.801,
空白時間2 (0.5秒),canvas.Screen,13_9_2,2022-12-26T14:31:34.664Z,,,b,,,45,500.4000000000233,timeout,e.jpg,,,265073.5999999996,265071.521,264571.121,264573.2000000002,264587.801,265088.201,
刺激提示,canvas.Screen,13_9_3,2022-12-26T14:31:35.188Z,,,b,true,b,45,501.6990000003716,response,e.jpg,b,keypress(f),265597.7999999998,265589.9000000004,265071.521,265073.7999999998,265088.201,265688.681,
フィードバック(0.5秒),canvas.Screen,13_9_4,2022-12-26T14:31:35.765Z,,,b,,,45,500.4000000000233,timeout,e.jpg,,,266175,266172.401,265655.321,265600.5999999996,265688.681,266189.081,
トライアル,flow.Sequence,13_9,2022-12-26T14:31:35.766Z,,,b,,,45,3119.1600000000326,completion,e.jpg,,,266175.5,266172.401,263036.561,263038.9000000004,263053.241,266189.081,
空白時間1 (0.5秒),canvas.Screen,13_10_0,2022-12-26T14:31:36.265Z,,,b,,,315,500.4000000000233,timeout,e.jpg,,,266674.9000000004,266672.801,266172.401,266175.7999999998,266189.081,266689.481,
注視(1秒),canvas.Screen,13_10_1,2022-12-26T14:31:37.266Z,,,b,,,315,1000.7999999999884,timeout,e.jpg,,,267675.7000000002,267673.601,266672.801,266675.0999999996,266689.481,267690.281,
空白時間2 (0.5秒),canvas.Screen,13_10_2,2022-12-26T14:31:37.766Z,,,b,,,315,533.7600000000093,timeout,e.jpg,,,268176.5,268174.001,267673.601,267675.9000000004,267690.281,268224.041,
刺激提示,canvas.Screen,13_10_3,2022-12-26T14:31:38.393Z,,,b,true,b,315,572.0589999996009,response,e.jpg,b,keypress(f),268803.5,268796.0999999996,268174.001,268176.7000000002,268224.041,268824.521,
フィードバック(0.5秒),canvas.Screen,13_10_4,2022-12-26T14:31:38.900Z,,,b,,,315,500.3999999999651,timeout,e.jpg,,,269310.2000000002,269308.241,268807.841,268815.7999999998,268824.521,269324.921,
トライアル,flow.Sequence,13_10,2022-12-26T14:31:38.900Z,,,b,,,315,3119.1599999999744,completion,e.jpg,,,269310.5,269308.241,266172.401,266175.7000000002,266189.081,269324.921,
空白時間1 (0.5秒),canvas.Screen,13_11_0,2022-12-26T14:31:39.400Z,,,d,,,180,533.7600000000093,timeout,eR.jpg,,,269810.5999999996,269808.641,269308.241,269310.5999999996,269324.921,269858.681,
注視(1秒),canvas.Screen,13_11_1,2022-12-26T14:31:40.435Z,,,d,,,180,1000.8000000000466,timeout,eR.jpg,,,270844.9000000004,270842.801,269808.641,269810.7000000002,269858.681,270859.481,
空白時間2 (0.5秒),canvas.Screen,13_11_2,2022-12-26T14:31:40.936Z,,,d,,,180,500.3999999999651,timeout,eR.jpg,,,271345.9000000004,271343.201,270842.801,270845,270859.481,271359.881,
刺激提示,canvas.Screen,13_11_3,2022-12-26T14:31:41.757Z,,,d,true,d,180,800.0190000003786,response,eR.jpg,d,keypress(j),272166.7999999998,272159.9000000004,271343.201,271346.2000000002,271359.881,272260.601,
フィードバック(0.5秒),canvas.Screen,13_11_4,2022-12-26T14:31:42.337Z,,,d,,,180,517.0799999999581,timeout,eR.jpg,,,272746.9000000004,272744.321,272227.241,272193.2000000002,272260.601,272777.681,
トライアル,flow.Sequence,13_11,2022-12-26T14:31:42.337Z,,,d,,,180,3419.4000000000233,completion,eR.jpg,,,272747.2999999998,272744.321,269308.241,269310.5999999996,269324.921,272777.681,
空白時間1 (0.5秒),canvas.Screen,13_12_0,2022-12-26T14:31:42.853Z,,,d,,,270,517.0800000000163,timeout,eR.jpg,,,273263.5,273261.401,272744.321,272747.5,272777.681,273294.761,
注視(1秒),canvas.Screen,13_12_1,2022-12-26T14:31:43.870Z,,,d,,,270,1017.4799999999814,timeout,eR.jpg,,,274280.4000000004,274278.881,273261.401,273263.7000000002,273294.761,274312.241,
空白時間2 (0.5秒),canvas.Screen,13_12_2,2022-12-26T14:31:44.388Z,,,d,,,270,517.0800000000163,timeout,eR.jpg,,,274798.5,274795.961,274278.881,274280.7000000002,274312.241,274829.321,
刺激提示,canvas.Screen,13_12_3,2022-12-26T14:31:45.108Z,,,d,true,d,270,682.87900000019,response,eR.jpg,d,keypress(j),275518.0999999996,275512.2000000002,274795.961,274798.7999999998,274829.321,275529.881,
フィードバック(0.5秒),canvas.Screen,13_12_4,2022-12-26T14:31:45.606Z,,,d,,,270,500.4000000000233,timeout,eR.jpg,,,276016,276013.601,275513.201,275519.2999999998,275529.881,276030.281,
トライアル,flow.Sequence,13_12,2022-12-26T14:31:45.606Z,,,d,,,270,3235.920000000042,completion,eR.jpg,,,276016.5,276013.601,272744.321,272747.4000000004,272777.681,276030.281,
空白時間1 (0.5秒),canvas.Screen,13_13_0,2022-12-26T14:31:46.106Z,,,d,,,135,517.0799999999581,timeout,eR.jpg,,,276516.5999999996,276514.001,276013.601,276016.7000000002,276030.281,276547.361,
注視(1秒),canvas.Screen,13_13_1,2022-12-26T14:31:47.122Z,,,d,,,135,1000.8000000000466,timeout,eR.jpg,,,277533,277531.481,276514.001,276516.9000000004,276547.361,277548.161,
空白時間2 (0.5秒),canvas.Screen,13_13_2,2022-12-26T14:31:47.624Z,,,d,,,135,517.0799999999581,timeout,eR.jpg,,,278034.2000000002,278031.881,277531.481,277533.2000000002,277548.161,278065.241,
刺激提示,canvas.Screen,13_13_3,2022-12-26T14:31:48.598Z,,,d,true,d,135,935.0589999998338,response,eR.jpg,d,keypress(j),279008.5999999996,279000.2999999998,278031.881,278034.5999999996,278065.241,279032.681,
フィードバック(0.5秒),canvas.Screen,13_13_4,2022-12-26T14:31:49.107Z,,,d,,,135,500.4000000000233,timeout,eR.jpg,,,279518,279516.401,279016.001,279020.9000000004,279032.681,279533.081,
トライアル,flow.Sequence,13_13,2022-12-26T14:31:49.108Z,,,d,,,135,3486.1199999999953,completion,eR.jpg,,,279518.2999999998,279516.401,276013.601,276016.5999999996,276030.281,279533.081,
空白時間1 (0.5秒),canvas.Screen,13_14_0,2022-12-26T14:31:49.608Z,,,b,,,180,500.90200000000186,timeout,e.jpg,,,280018.9000000004,280017.303,279516.401,279518.5,279533.081,280033.983,
注視(1秒),canvas.Screen,13_14_1,2022-12-26T14:31:50.609Z,,,b,,,180,1000.7999999999884,timeout,e.jpg,,,281019.7000000002,281018.103,280017.303,280019.2999999998,280033.983,281034.783,
空白時間2 (0.5秒),canvas.Screen,13_14_2,2022-12-26T14:31:51.111Z,,,b,,,180,533.7600000000093,timeout,e.jpg,,,281521.2000000002,281518.503,281018.103,281019.7999999998,281034.783,281568.543,
刺激提示,canvas.Screen,13_14_3,2022-12-26T14:31:52.400Z,,,b,true,b,180,1234.0569999996223,response,e.jpg,b,keypress(f),282810.5999999996,282802.5999999996,281518.503,281521.4000000004,281568.543,282836.223,
フィードバック(0.5秒),canvas.Screen,13_14_4,2022-12-26T14:31:52.911Z,,,b,,,180,500.4000000000233,timeout,e.jpg,,,283321.4000000004,283319.943,282819.543,282822.2999999998,282836.223,283336.623,
トライアル,flow.Sequence,13_14,2022-12-26T14:31:52.911Z,,,b,,,180,3786.862000000023,completion,e.jpg,,,283321.5999999996,283319.943,279516.401,279518.5,279533.081,283336.623,
空白時間1 (0.5秒),canvas.Screen,13_15_0,2022-12-26T14:31:53.411Z,,,b,,,0,533.7599999999511,timeout,e.jpg,,,283822,283820.343,283319.943,283321.7000000002,283336.623,283870.383,
注視(1秒),canvas.Screen,13_15_1,2022-12-26T14:31:54.445Z,,,b,,,0,1000.8000000000466,timeout,e.jpg,,,284855.5,284854.503,283820.343,283822.0999999996,283870.383,284871.183,
空白時間2 (0.5秒),canvas.Screen,13_15_2,2022-12-26T14:31:54.946Z,,,b,,,0,500.3999999999651,timeout,e.jpg,,,285356.5,285354.903,284854.503,284855.9000000004,284871.183,285371.583,
刺激提示,canvas.Screen,13_15_3,2022-12-26T14:31:55.483Z,,,b,true,b,0,513.9170000000158,response,e.jpg,b,keypress(f),285893.5,285885.5,285354.903,285356.7000000002,285371.583,285988.743,
フィードバック(0.5秒),canvas.Screen,13_15_4,2022-12-26T14:31:56.065Z,,,b,,,0,500.3999999999651,timeout,e.jpg,,,286476.0999999996,286472.463,285955.383,285929,285988.743,286489.143,
トライアル,flow.Sequence,13_15,2022-12-26T14:31:56.066Z,,,b,,,0,3135.8399999999674,completion,e.jpg,,,286476.4000000004,286472.463,283319.943,283321.7000000002,283336.623,286489.143,
タスクのセット,flow.Loop,13,2022-12-26T14:31:56.066Z,,,,,,,51792.68299999999,completion,,,,286476.5999999996,286472.463,234646.42,234649.5,234679.78,286489.143,
休憩,canvas.Screen,14,2022-12-26T14:32:56.060Z,,,,,,,59998.75200000004,timeout,,,,346473.4000000004,346471.215,286472.463,286477.9000000004,286489.143,346487.895,
休憩終了,html.Page,15,2022-12-26T14:33:00.259Z,,,,,,,4184.704999999609,form submission,,,,350672.7000000002,350672.5999999996,346471.215,346473.7000000002,346487.895,350675.445,
イントロ2,html.Page,16,2022-12-26T14:33:01.498Z,,,,,,,1236.2550000001793,form submission,,,,351912,351911.7000000002,350658.765,350672.9000000004,350675.445,351926.445,
イントロ3,html.Page,17,2022-12-26T14:33:02.952Z,,,,,,,1438.3549999998068,form submission,,,,353365.2000000002,353364.7999999998,351909.765,351912.0999999996,351926.445,353377.605,
イントロ4,html.Page,18,2022-12-26T14:33:04.189Z,,,,,,,1225.1949999998324,form submission,,,,354603.0999999996,354602.7999999998,353360.925,353365.5,353377.605,354611.925,
イントロ5,html.Page,19,2022-12-26T14:33:05.526Z,,,,,,,1328.0750000000116,form submission,,,,355940.0999999996,355940,354595.245,354603.2000000002,354611.925,355946.325,
できるだけ早く正確に,canvas.Screen,20,2022-12-26T14:33:06.519Z,,,,,,,1000.7999999999884,timeout,,,,356932.2999999998,356930.445,355929.645,355940.2999999998,355946.325,356947.125,
空白時間1 (0.5秒),canvas.Screen,21_0_0,2022-12-26T14:33:07.019Z,,,d,,,90,517.3389999999781,timeout,2R.jpg,,,357432.4000000004,357431.104,356930.445,356932.5999999996,356947.125,357464.464,
注視(1秒),canvas.Screen,21_0_1,2022-12-26T14:33:08.036Z,,,d,,,90,1000.8000000000466,timeout,2R.jpg,,,358450,358448.584,357431.104,357432.5999999996,357464.464,358465.264,
空白時間2 (0.5秒),canvas.Screen,21_0_2,2022-12-26T14:33:08.537Z,,,d,,,90,533.7599999999511,timeout,2R.jpg,,,358950.5999999996,358948.984,358448.584,358450.2999999998,358465.264,358999.024,
刺激提示(練習),canvas.Screen,21_0_3,2022-12-26T14:33:09.315Z,,,d,false,d,90,721.5759999996517,response,2R.jpg,b,keypress(f),359728.5999999996,359720.5999999996,358948.984,358950.7000000002,358999.024,359749.624,
フィードバック(0.5秒),canvas.Screen,21_0_4,2022-12-26T14:33:09.821Z,,,d,,,90,517.0800000000163,timeout,2R.jpg,,,360235,360233.344,359732.944,359741.4000000004,359749.624,360266.704,
トライアル,flow.Sequence,21_0,2022-12-26T14:33:09.822Z,,,d,,,90,3286.2189999999828,completion,2R.jpg,,,360236.2999999998,360233.344,356930.445,356932.5,356947.125,360266.704,
空白時間1 (0.5秒),canvas.Screen,21_1_0,2022-12-26T14:33:10.337Z,,,b,,,180,500.3999999999651,timeout,2.jpg,,,360751.5,360750.424,360233.344,360236.5999999996,360266.704,360767.104,
注視(1秒),canvas.Screen,21_1_1,2022-12-26T14:33:11.339Z,,,b,,,180,1000.7999999999884,timeout,2.jpg,,,361752.7000000002,361751.224,360750.424,360751.7999999998,360767.104,361767.904,
空白時間2 (0.5秒),canvas.Screen,21_1_2,2022-12-26T14:33:11.839Z,,,b,,,180,533.7600000000093,timeout,2.jpg,,,362253.2999999998,362251.624,361751.224,361752.7999999998,361767.904,362301.664,
刺激提示(練習),canvas.Screen,21_1_3,2022-12-26T14:33:12.579Z,,,b,true,b,180,681.3360000000102,response,2.jpg,b,keypress(f),362993.0999999996,362983,362251.624,362253.4000000004,362301.664,363018.904,
フィードバック(0.5秒),canvas.Screen,21_1_4,2022-12-26T14:33:13.090Z,,,b,,,180,500.4000000000233,timeout,2.jpg,,,363504.5,363502.624,363002.224,363004.7999999998,363018.904,363519.304,
トライアル,flow.Sequence,21_1,2022-12-26T14:33:13.091Z,,,b,,,180,3235.9199999999837,completion,2.jpg,,,363504.9000000004,363502.624,360233.344,360236.4000000004,360266.704,363519.304,
空白時間1 (0.5秒),canvas.Screen,21_2_0,2022-12-26T14:33:13.592Z,,,d,,,225,500.4000000000233,timeout,2R.jpg,,,364006.0999999996,364003.024,363502.624,363505.0999999996,363519.304,364019.704,
注視(1秒),canvas.Screen,21_2_1,2022-12-26T14:33:14.591Z,,,d,,,225,1034.1599999999744,timeout,2R.jpg,,,365005.4000000004,365003.824,364003.024,364006.2999999998,364019.704,365053.864,
空白時間2 (0.5秒),canvas.Screen,21_2_2,2022-12-26T14:33:15.126Z,,,d,,,225,500.4000000000233,timeout,2R.jpg,,,365539.9000000004,365537.584,365003.824,365005.7000000002,365053.864,365554.264,
刺激提示(練習),canvas.Screen,21_2_3,2022-12-26T14:33:15.929Z,,,d,true,d,225,781.4360000001616,response,2R.jpg,d,keypress(j),366343.2000000002,366335.7000000002,365537.584,365540.2999999998,365554.264,366388.264,
フィードバック(0.5秒),canvas.Screen,21_2_4,2022-12-26T14:33:16.460Z,,,d,,,225,517.0799999999581,timeout,2R.jpg,,,366874.2000000002,366871.984,366371.584,366344.9000000004,366388.264,366905.344,
トライアル,flow.Sequence,21_2,2022-12-26T14:33:16.460Z,,,d,,,225,3352.679999999993,completion,2R.jpg,,,366874.5999999996,366871.984,363502.624,363505.0999999996,363519.304,366905.344,
空白時間1 (0.5秒),canvas.Screen,21_3_0,2022-12-26T14:33:16.977Z,,,b,,,45,500.4000000000233,timeout,2.jpg,,,367391,367389.064,366871.984,366874.7999999998,366905.344,367405.744,
注視(1秒),canvas.Screen,21_3_1,2022-12-26T14:33:17.978Z,,,b,,,45,1001.0599999999977,timeout,2.jpg,,,368392,368390.124,367389.064,367391.4000000004,367405.744,368406.804,
空白時間2 (0.5秒),canvas.Screen,21_3_2,2022-12-26T14:33:18.478Z,,,b,,,45,533.7600000000093,timeout,2.jpg,,,368892.2999999998,368890.524,368390.124,368392.0999999996,368406.804,368940.564,
刺激提示(練習),canvas.Screen,21_3_3,2022-12-26T14:33:20.283Z,,,b,true,b,45,1748.8360000003595,response,2.jpg,b,keypress(f),370697.0999999996,370689.4000000004,368890.524,368892.5,368940.564,370725.324,
フィードバック(0.5秒),canvas.Screen,21_3_4,2022-12-26T14:33:20.796Z,,,b,,,45,500.3999999999651,timeout,2.jpg,,,371210.7999999998,371209.044,370708.644,370710.2999999998,370725.324,371225.724,
トライアル,flow.Sequence,21_3,2022-12-26T14:33:20.797Z,,,b,,,45,4303.700000000012,completion,2.jpg,,,371211.0999999996,371209.044,366871.984,366874.7999999998,366905.344,371225.724,
練習試行(2),flow.Loop,21,2022-12-26T14:33:20.797Z,,,,,,,14261.918999999994,completion,,,,371211.4000000004,371209.044,356930.445,356932.5,356947.125,371225.724,
