sender,sender_type,sender_id,timestamp,meta,,answer,correct,correctResponse,deg,duration,ended_on,image,response,response_action,time_commit,time_end,time_render,time_run,time_show,time_switch,url
イントロ1,html.Page,0,2023-01-16T08:41:36.174Z,"{""labjs_version"":""20.2.4"",""labjs_build"":{""flavor"":""development"",""commit"":""f5b4a49f956347addd546a832a3327688c2c0fef""},""location"":""https://labjs.felixhenninger.com/api/labjs_preview/index.html"",""userAgent"":""Mozilla/5.0 (Windows NT 10.0; Win64; x64) AppleWebKit/537.36 (KHTML, like Gecko) Chrome/109.0.0.0 Safari/537.36"",""platform"":""Win32"",""language"":""ja"",""locale"":""ja"",""timeZone"":""Asia/Tokyo"",""timezoneOffset"":-540,""screen_width"":1280,""screen_height"":800,""scroll_width"":824,""scroll_height"":646,""window_innerWidth"":824,""window_innerHeight"":694,""devicePixelRatio"":1.5}",,,,,,3079.741000000012,form submission,,,,4718.8000000000175,4718.200000000012,1338.866,1991.3000000000175,1638.459,4351.711,{}
イントロ2,html.Page,1,2023-01-16T08:41:37.541Z,,,,,,,1733.7889999999998,form submission,,,,6085.700000000012,6085.5,4335.055,4719.8000000000175,4351.711,5733.264,
イントロ3,html.Page,2,2023-01-16T08:41:39.517Z,,,,,,,2328.136000000023,form submission,,,,8061.700000000012,8061.400000000023,5716.67,6085.900000000023,5733.264,7697.447,
イントロ4,html.Page,3,2023-01-16T08:41:40.261Z,,,,,,,1107.8530000000173,form submission,,,,8805.600000000006,8805.300000000017,7680.838,8061.900000000023,7697.447,8446.516,
イントロ5,html.Page,4,2023-01-16T08:41:40.829Z,,,,,,,926.8840000000237,form submission,,,,9373.800000000017,9373.400000000023,8429.875,8805.800000000017,8446.516,9029.079,
できるだけ早く正確に,canvas.Screen,5,2023-01-16T08:41:41.550Z,,,,,,,699.1329999999998,timeout,,,,10095,10094.400000000023,8995.82,9373.900000000023,9029.079,9728.212,
空白時間1 (0.5秒),canvas.Screen,6_0_0,2023-01-16T08:41:41.780Z,,,b,,,270,216.4369999999999,timeout,e.jpg,,,10325,10324.600000000006,10094.400000000023,10095.600000000006,9728.212,9944.649,
注視(1秒),canvas.Screen,6_0_1,2023-01-16T08:41:42.472Z,,,b,,,270,699.0439999999999,timeout,e.jpg,,,11016.900000000023,11016.600000000006,10324.600000000006,10325.200000000012,9944.649,10643.693,
空白時間2 (0.5秒),canvas.Screen,6_0_2,2023-01-16T08:41:42.690Z,,,b,,,270,216.41899999999987,timeout,e.jpg,,,11234.800000000017,11234.400000000023,11016.600000000006,11017.100000000006,10643.693,10860.112,
刺激提示(練習),canvas.Screen,6_0_3,2023-01-16T08:41:43.351Z,,,b,true,b,270,1033.8880000000008,response,e.jpg,b,keypress(f),11895.600000000006,11894,11234.400000000023,11235,10860.112,11542.55,
フィードバック(0.5秒),canvas.Screen,6_0_4,2023-01-16T08:41:43.580Z,,,b,,,270,199.79600000000028,timeout,e.jpg,,,12124.700000000012,12124.300000000017,11525.912,11897.800000000017,11542.55,11742.346,
トライアル,flow.Sequence,6_0,2023-01-16T08:41:43.581Z,,,b,,,270,2396.088000000018,completion,e.jpg,,,12125.200000000012,12124.300000000017,10094.400000000023,10095.5,9728.212,11742.346,
空白時間1 (0.5秒),canvas.Screen,6_1_0,2023-01-16T08:41:43.790Z,,,d,,,135,216.4300000000003,timeout,eR.jpg,,,12334.800000000017,12334.300000000017,12124.300000000017,12125.600000000006,11742.346,11958.776,
注視(1秒),canvas.Screen,6_1_1,2023-01-16T08:41:44.480Z,,,d,,,135,682.4310000000005,timeout,eR.jpg,,,13024.600000000006,13024.200000000012,12334.300000000017,12335.100000000006,11958.776,12641.207,
空白時間2 (0.5秒),canvas.Screen,6_1_2,2023-01-16T08:41:44.706Z,,,d,,,135,233.003999999999,timeout,eR.jpg,,,13250.200000000012,13249.800000000017,13024.200000000012,13024.700000000012,12641.207,12874.211,
刺激提示(練習),canvas.Screen,6_1_3,2023-01-16T08:41:45.407Z,,,d,true,d,135,1076.0890000000181,response,eR.jpg,d,keypress(j),13951.300000000017,13950.300000000017,13249.800000000017,13250.600000000006,12874.211,13589.973,
フィードバック(0.5秒),canvas.Screen,6_1_4,2023-01-16T08:41:45.630Z,,,d,,,135,216.4310000000005,timeout,eR.jpg,,,14174.700000000012,14174.300000000017,13573.313,13954.100000000006,13589.973,13806.404,
トライアル,flow.Sequence,6_1,2023-01-16T08:41:45.631Z,,,d,,,135,2431.954000000018,completion,eR.jpg,,,14175.200000000012,14174.300000000017,12124.300000000017,12125.400000000023,11742.346,13806.404,
空白時間1 (0.5秒),canvas.Screen,6_2_0,2023-01-16T08:41:45.850Z,,,b,,,180,216.3760000000002,timeout,e.jpg,,,14394.5,14394.100000000006,14174.300000000017,14175.400000000023,13806.404,14022.78,
注視(1秒),canvas.Screen,6_2_1,2023-01-16T08:41:46.550Z,,,b,,,180,699.0849999999991,timeout,e.jpg,,,15094.400000000023,15094.100000000006,14394.100000000006,14394.700000000012,14022.78,14721.865,
空白時間2 (0.5秒),canvas.Screen,6_2_2,2023-01-16T08:41:46.770Z,,,b,,,180,216.4320000000007,timeout,e.jpg,,,15314.800000000017,15314.400000000023,15094.100000000006,15094.600000000006,14721.865,14938.297,
刺激提示(練習),canvas.Screen,6_2_3,2023-01-16T08:41:47.671Z,,,b,true,b,180,1264.2029999999995,response,e.jpg,b,keypress(f),16215.5,16202.5,15314.400000000023,15315.100000000006,14938.297,15870.41,
フィードバック(0.5秒),canvas.Screen,6_2_4,2023-01-16T08:41:47.910Z,,,b,,,180,216.40999999999985,timeout,e.jpg,,,16454.5,16454.20000000001,15853.753,16221.800000000017,15870.41,16086.82,
トライアル,flow.Sequence,6_2,2023-01-16T08:41:47.910Z,,,b,,,180,2647.796000000011,completion,e.jpg,,,16454.70000000001,16454.20000000001,14174.300000000017,14175.300000000017,13806.404,16086.82,
空白時間1 (0.5秒),canvas.Screen,6_3_0,2023-01-16T08:41:48.130Z,,,d,,,315,216.42200000000048,timeout,eR.jpg,,,16674.5,16674.20000000001,16454.20000000001,16454.800000000017,16086.82,16303.242,
注視(1秒),canvas.Screen,6_3_1,2023-01-16T08:41:48.830Z,,,d,,,315,699.0619999999999,timeout,eR.jpg,,,17374.5,17374.20000000001,16674.20000000001,16674.70000000001,16303.242,17002.304,
空白時間2 (0.5秒),canvas.Screen,6_3_2,2023-01-16T08:41:49.050Z,,,d,,,315,216.42199999999866,timeout,eR.jpg,,,17594.900000000023,17594.600000000006,17374.20000000001,17374.800000000017,17002.304,17218.726,
刺激提示(練習),canvas.Screen,6_3_3,2023-01-16T08:41:49.651Z,,,d,true,d,315,975.6740000000245,response,eR.jpg,d,keypress(j),18195.100000000006,18194.400000000023,17594.600000000006,17595.100000000006,17218.726,17867.865,
フィードバック(0.5秒),canvas.Screen,6_3_4,2023-01-16T08:41:49.910Z,,,d,,,315,216.42099999999846,timeout,eR.jpg,,,18455,18454.600000000006,17851.228,18221.5,17867.865,18084.286,
トライアル,flow.Sequence,6_3,2023-01-16T08:41:49.911Z,,,d,,,315,2367.780000000006,completion,eR.jpg,,,18455.5,18454.600000000006,16454.20000000001,16454.800000000017,16086.82,18084.286,
練習試行(e),flow.Loop,6,2023-01-16T08:41:49.911Z,,,,,,,8726.388000000006,completion,,,,18455.900000000023,18454.600000000006,10094.400000000023,10095.400000000023,9728.212,18084.286,
イントロ6,html.Page,7,2023-01-16T08:41:52.133Z,,,,,,,2593.4140000000116,form submission,,,,20677.900000000023,20677.70000000001,18454.600000000006,18456.20000000001,18084.286,20314.81,
できるだけ早く正確に,canvas.Screen,8,2023-01-16T08:41:52.840Z,,,,,,,699.0939999999973,timeout,,,,21384.600000000006,21384.20000000001,20298.129,20678.20000000001,20314.81,21013.904,
空白時間1 (0.5秒),canvas.Screen,9_0_0,2023-01-16T08:41:53.060Z,,,d,,,90,216.3650000000016,timeout,eR.jpg,,,21604.900000000023,21604.5,21384.20000000001,21384.900000000023,21013.904,21230.269,
注視(1秒),canvas.Screen,9_0_1,2023-01-16T08:41:53.760Z,,,d,,,90,699.1359999999986,timeout,eR.jpg,,,22304.400000000023,22304.20000000001,21604.5,21605.20000000001,21230.269,21929.405,
空白時間2 (0.5秒),canvas.Screen,9_0_2,2023-01-16T08:41:53.970Z,,,d,,,90,216.40600000000268,timeout,eR.jpg,,,22514.800000000017,22514.5,22304.20000000001,22304.600000000006,21929.405,22145.811,
刺激提示,canvas.Screen,9_0_3,2023-01-16T08:41:54.626Z,,,d,true,d,90,1023.989000000016,response,eR.jpg,d,keypress(j),23170.900000000023,23169.800000000017,22514.5,22515.100000000006,22145.811,22828.238,
フィードバック(0.5秒),canvas.Screen,9_0_4,2023-01-16T08:41:54.870Z,,,d,,,90,216.40199999999822,timeout,eR.jpg,,,23414.600000000006,23414.20000000001,22794.954,23173.5,22828.238,23044.64,
トライアル,flow.Sequence,9_0,2023-01-16T08:41:54.870Z,,,d,,,90,2400.296000000013,completion,eR.jpg,,,23415.100000000006,23414.20000000001,21384.20000000001,21384.900000000023,21013.904,23044.64,
空白時間1 (0.5秒),canvas.Screen,9_1_0,2023-01-16T08:41:55.080Z,,,b,,,315,199.72500000000218,timeout,e.jpg,,,23624.70000000001,23624.300000000017,23414.20000000001,23415.400000000023,23044.64,23244.365,
注視(1秒),canvas.Screen,9_1_1,2023-01-16T08:41:55.780Z,,,b,,,315,699.1579999999994,timeout,e.jpg,,,24324.5,24324.100000000006,23624.300000000017,23625,23244.365,23943.523,
空白時間2 (0.5秒),canvas.Screen,9_1_2,2023-01-16T08:41:55.990Z,,,b,,,315,216.40599999999904,timeout,e.jpg,,,24534.70000000001,24534.400000000023,24324.100000000006,24324.800000000017,23943.523,24159.929,
刺激提示,canvas.Screen,9_1_3,2023-01-16T08:41:56.494Z,,,b,true,b,315,876.5709999999999,response,e.jpg,b,keypress(f),25038.5,25036.5,24534.400000000023,24534.900000000023,24159.929,24675.902,
フィードバック(0.5秒),canvas.Screen,9_1_4,2023-01-16T08:41:56.720Z,,,b,,,315,216.40600000000268,timeout,e.jpg,,,25264.600000000006,25264.300000000017,24659.271,25041.20000000001,24675.902,24892.308,
トライアル,flow.Sequence,9_1,2023-01-16T08:41:56.720Z,,,b,,,315,2219.660000000018,completion,e.jpg,,,25264.800000000017,25264.300000000017,23414.20000000001,23415.20000000001,23044.64,24892.308,
空白時間1 (0.5秒),canvas.Screen,9_2_0,2023-01-16T08:41:56.943Z,,,b,,,270,216.41799999999785,timeout,e.jpg,,,25488,25487.5,25264.300000000017,25265,24892.308,25108.726,
注視(1秒),canvas.Screen,9_2_1,2023-01-16T08:41:57.640Z,,,b,,,270,699.0580000000009,timeout,e.jpg,,,26184.600000000006,26184.400000000023,25487.5,25488.20000000001,25108.726,25807.784,
空白時間2 (0.5秒),canvas.Screen,9_2_2,2023-01-16T08:41:57.840Z,,,b,,,270,199.76599999999962,timeout,e.jpg,,,26384.400000000023,26384.20000000001,26184.400000000023,26184.800000000017,25807.784,26007.55,
刺激提示,canvas.Screen,9_2_3,2023-01-16T08:41:58.460Z,,,b,true,b,270,996.0500000000065,response,e.jpg,b,keypress(f),27004.400000000023,27003.600000000006,26384.20000000001,26384.5,26007.55,26640.066,
フィードバック(0.5秒),canvas.Screen,9_2_4,2023-01-16T08:41:58.681Z,,,b,,,270,216.40200000000186,timeout,e.jpg,,,27224.800000000017,27224.5,26623.453,27005.70000000001,26640.066,26856.468,
トライアル,flow.Sequence,9_2,2023-01-16T08:41:58.681Z,,,b,,,270,2332.191999999999,completion,e.jpg,,,27225,27224.5,25264.300000000017,25264.900000000023,24892.308,26856.468,
空白時間1 (0.5秒),canvas.Screen,9_3_0,2023-01-16T08:41:58.901Z,,,d,,,225,216.3770000000004,timeout,eR.jpg,,,27444.900000000023,27444.70000000001,27224.5,27225.20000000001,26856.468,27072.845,
注視(1秒),canvas.Screen,9_3_1,2023-01-16T08:41:59.601Z,,,d,,,225,699.1569999999992,timeout,eR.jpg,,,28144.600000000006,28144.400000000023,27444.70000000001,27445.100000000006,27072.845,27772.002,
空白時間2 (0.5秒),canvas.Screen,9_3_2,2023-01-16T08:41:59.821Z,,,d,,,225,216.41200000000026,timeout,eR.jpg,,,28364.70000000001,28364.5,28144.400000000023,28144.800000000017,27772.002,27988.414,
刺激提示,canvas.Screen,9_3_3,2023-01-16T08:42:00.433Z,,,d,true,d,225,987.786000000011,response,eR.jpg,d,keypress(j),28977.100000000006,28976.20000000001,28364.5,28365,27988.414,28620.881,
フィードバック(0.5秒),canvas.Screen,9_3_4,2023-01-16T08:42:00.661Z,,,d,,,225,216.42199999999866,timeout,eR.jpg,,,29205.100000000006,29204.70000000001,28604.308,28979,28620.881,28837.303,
トライアル,flow.Sequence,9_3,2023-01-16T08:42:00.661Z,,,d,,,225,2348.232000000011,completion,eR.jpg,,,29205.400000000023,29204.70000000001,27224.5,27225.20000000001,26856.468,28837.303,
空白時間1 (0.5秒),canvas.Screen,9_4_0,2023-01-16T08:42:00.881Z,,,b,,,45,216.3780000000006,timeout,e.jpg,,,29424.600000000006,29424.300000000017,29204.70000000001,29205.70000000001,28837.303,29053.681,
注視(1秒),canvas.Screen,9_4_1,2023-01-16T08:42:01.581Z,,,b,,,45,699.101999999999,timeout,e.jpg,,,30124.600000000006,30124.300000000017,29424.300000000017,29424.900000000023,29053.681,29752.783,
空白時間2 (0.5秒),canvas.Screen,9_4_2,2023-01-16T08:42:01.801Z,,,b,,,45,216.39199999999983,timeout,e.jpg,,,30345,30344.70000000001,30124.300000000017,30124.70000000001,29752.783,29969.175,
刺激提示,canvas.Screen,9_4_3,2023-01-16T08:42:02.370Z,,,b,true,b,45,944.3250000000007,response,e.jpg,b,keypress(f),30914.300000000017,30913.5,30344.70000000001,30345.300000000017,29969.175,30551.781,
フィードバック(0.5秒),canvas.Screen,9_4_4,2023-01-16T08:42:02.591Z,,,b,,,45,199.76900000000023,timeout,e.jpg,,,31134.600000000006,31134.300000000017,30535.155,30916.300000000017,30551.781,30751.55,
トライアル,flow.Sequence,9_4,2023-01-16T08:42:02.591Z,,,b,,,45,2296.9970000000176,completion,e.jpg,,,31134.900000000023,31134.300000000017,29204.70000000001,29205.600000000006,28837.303,30751.55,
空白時間1 (0.5秒),canvas.Screen,9_5_0,2023-01-16T08:42:02.811Z,,,b,,,0,233.0460000000021,timeout,e.jpg,,,31354.600000000006,31354.300000000017,31134.300000000017,31135,30751.55,30984.596,
注視(1秒),canvas.Screen,9_5_1,2023-01-16T08:42:03.521Z,,,b,,,0,699.0699999999997,timeout,e.jpg,,,32065,32064.600000000006,31354.300000000017,31354.900000000023,30984.596,31683.666,
空白時間2 (0.5秒),canvas.Screen,9_5_2,2023-01-16T08:42:03.721Z,,,b,,,0,199.78999999999724,timeout,e.jpg,,,32264.900000000023,32264.600000000006,32064.600000000006,32065.300000000017,31683.666,31883.456,
刺激提示,canvas.Screen,9_5_3,2023-01-16T08:42:04.212Z,,,b,true,b,0,871.944000000025,response,e.jpg,b,keypress(f),32756.400000000023,32755.400000000023,32264.600000000006,32265.100000000006,31883.456,32399.435,
フィードバック(0.5秒),canvas.Screen,9_5_4,2023-01-16T08:42:04.441Z,,,b,,,0,216.40099999999802,timeout,e.jpg,,,32984.40000000002,32984.100000000006,32382.86,32758.900000000023,32399.435,32615.836,
トライアル,flow.Sequence,9_5,2023-01-16T08:42:04.441Z,,,b,,,0,2232.5500000000065,completion,e.jpg,,,32985,32984.100000000006,31134.300000000017,31135,30751.55,32615.836,
空白時間1 (0.5秒),canvas.Screen,9_6_0,2023-01-16T08:42:04.651Z,,,b,,,135,199.77100000000428,timeout,e.jpg,,,33194.80000000002,33194.40000000002,32984.100000000006,32985.30000000002,32615.836,32815.607,
注視(1秒),canvas.Screen,9_6_1,2023-01-16T08:42:05.351Z,,,b,,,135,699.1209999999992,timeout,e.jpg,,,33894.80000000002,33894.5,33194.40000000002,33195.100000000006,32815.607,33514.728,
空白時間2 (0.5秒),canvas.Screen,9_6_2,2023-01-16T08:42:05.561Z,,,b,,,135,216.4300000000003,timeout,e.jpg,,,34104.5,34104.20000000001,33894.5,33895,33514.728,33731.158,
刺激提示,canvas.Screen,9_6_3,2023-01-16T08:42:06.190Z,,,b,true,b,135,1001.2420000000202,response,e.jpg,b,keypress(f),34733.40000000002,34732.40000000002,34104.20000000001,34104.80000000002,33731.158,34380.264,
フィードバック(0.5秒),canvas.Screen,9_6_4,2023-01-16T08:42:06.420Z,,,b,,,135,216.3839999999982,timeout,e.jpg,,,34964.20000000001,34963.90000000002,34363.63,34736.30000000002,34380.264,34596.648,
トライアル,flow.Sequence,9_6,2023-01-16T08:42:06.421Z,,,b,,,135,2348.064000000024,completion,e.jpg,,,34964.600000000006,34963.90000000002,32984.100000000006,32985.20000000001,32615.836,34596.648,
空白時間1 (0.5秒),canvas.Screen,9_7_0,2023-01-16T08:42:06.641Z,,,b,,,90,216.39400000000023,timeout,e.jpg,,,35184.5,35184.100000000006,34963.90000000002,34964.80000000002,34596.648,34813.042,
注視(1秒),canvas.Screen,9_7_1,2023-01-16T08:42:07.348Z,,,b,,,90,699.1219999999958,timeout,e.jpg,,,35891.70000000001,35891.30000000002,35184.100000000006,35184.70000000001,34813.042,35512.164,
空白時間2 (0.5秒),canvas.Screen,9_7_2,2023-01-16T08:42:07.558Z,,,b,,,90,216.40700000000652,timeout,e.jpg,,,36102.20000000001,36101.70000000001,35891.30000000002,35892,35512.164,35728.571,
刺激提示,canvas.Screen,9_7_3,2023-01-16T08:42:08.061Z,,,b,true,b,90,875.7290000000139,response,e.jpg,b,keypress(f),36605.30000000002,36604.30000000002,36101.70000000001,36102.5,35728.571,36294.497,
フィードバック(0.5秒),canvas.Screen,9_7_4,2023-01-16T08:42:08.338Z,,,b,,,90,216.47699999999895,timeout,e.jpg,,,36881.70000000001,36881.30000000002,36277.896,36652.600000000006,36294.497,36510.974,
トライアル,flow.Sequence,9_7,2023-01-16T08:42:08.338Z,,,b,,,90,2284.6520000000164,completion,e.jpg,,,36882.20000000001,36881.30000000002,34963.90000000002,34964.80000000002,34596.648,36510.974,
空白時間1 (0.5秒),canvas.Screen,9_8_0,2023-01-16T08:42:08.550Z,,,b,,,180,239.09100000000035,timeout,e.jpg,,,37093.80000000002,37093,36881.30000000002,36882.40000000002,36510.974,36750.065,
注視(1秒),canvas.Screen,9_8_1,2023-01-16T08:42:09.279Z,,,b,,,180,693.0169999999998,timeout,e.jpg,,,37822.90000000002,37822.600000000006,37093,37094.20000000001,36750.065,37443.082,
空白時間2 (0.5秒),canvas.Screen,9_8_2,2023-01-16T08:42:09.489Z,,,b,,,180,216.35499999999593,timeout,e.jpg,,,38032.600000000006,38032.20000000001,37822.600000000006,37823.20000000001,37443.082,37659.437,
刺激提示,canvas.Screen,9_8_3,2023-01-16T08:42:10.063Z,,,b,false,b,180,946.3630000000194,response,e.jpg,d,keypress(j),38606.80000000002,38605.80000000002,38032.20000000001,38032.90000000002,37659.437,38272.427,
フィードバック(0.5秒),canvas.Screen,9_8_4,2023-01-16T08:42:10.305Z,,,b,,,180,202.65999999999622,timeout,e.jpg,,,38849.30000000002,38848.70000000001,38225.363,38608.20000000001,38272.427,38475.087,
トライアル,flow.Sequence,9_8,2023-01-16T08:42:10.306Z,,,b,,,180,2337.7260000000097,completion,e.jpg,,,38849.90000000002,38848.70000000001,36881.30000000002,36882.40000000002,36510.974,38475.087,
空白時間1 (0.5秒),canvas.Screen,9_9_0,2023-01-16T08:42:10.518Z,,,d,,,45,216.39199999999983,timeout,eR.jpg,,,39062.100000000006,39061.80000000002,38848.70000000001,38850.20000000001,38475.087,38691.479,
注視(1秒),canvas.Screen,9_9_1,2023-01-16T08:42:11.223Z,,,d,,,45,699.1460000000006,timeout,eR.jpg,,,39766.90000000002,39766.600000000006,39061.80000000002,39062.40000000002,38691.479,39390.625,
空白時間2 (0.5秒),canvas.Screen,9_9_2,2023-01-16T08:42:11.427Z,,,d,,,45,199.73599999999715,timeout,eR.jpg,,,39971.30000000002,39970.90000000002,39766.600000000006,39767.100000000006,39390.625,39590.361,
刺激提示,canvas.Screen,9_9_3,2023-01-16T08:42:11.980Z,,,d,true,d,45,932.8390000000145,response,eR.jpg,d,keypress(j),40524.100000000006,40523.20000000001,39970.90000000002,39971.40000000002,39590.361,40172.91,
フィードバック(0.5秒),canvas.Screen,9_9_4,2023-01-16T08:42:12.255Z,,,d,,,45,249.68999999999505,timeout,eR.jpg,,,40798.5,40798,40156.31,40527.100000000006,40172.91,40422.6,
トライアル,flow.Sequence,9_9,2023-01-16T08:42:12.255Z,,,d,,,45,2322.9130000000005,completion,eR.jpg,,,40799,40798,38848.70000000001,38850.100000000006,38475.087,40422.6,
空白時間1 (0.5秒),canvas.Screen,9_10_0,2023-01-16T08:42:12.478Z,,,d,,,180,216.39400000000023,timeout,eR.jpg,,,41022.100000000006,41021.70000000001,40798,40799.20000000001,40422.6,40638.994,
注視(1秒),canvas.Screen,9_10_1,2023-01-16T08:42:13.164Z,,,d,,,180,699.109000000004,timeout,eR.jpg,,,41707.90000000002,41707.600000000006,41021.70000000001,41022.30000000002,40638.994,41338.103,
空白時間2 (0.5秒),canvas.Screen,9_10_2,2023-01-16T08:42:13.379Z,,,d,,,180,216.41199999999662,timeout,eR.jpg,,,41922.90000000002,41922.600000000006,41707.600000000006,41708.100000000006,41338.103,41554.515,
刺激提示,canvas.Screen,9_10_3,2023-01-16T08:42:14.103Z,,,d,false,d,180,1091.0850000000064,response,eR.jpg,b,keypress(f),42646.80000000002,42645.600000000006,41922.600000000006,41923.20000000001,41554.515,42286.906,
フィードバック(0.5秒),canvas.Screen,9_10_4,2023-01-16T08:42:14.337Z,,,d,,,180,216.4189999999944,timeout,eR.jpg,,,42880.600000000006,42880.40000000002,42270.236,42649.20000000001,42286.906,42503.325,
トライアル,flow.Sequence,9_10,2023-01-16T08:42:14.337Z,,,d,,,180,2457.8000000000247,completion,eR.jpg,,,42880.90000000002,42880.40000000002,40798,40799.20000000001,40422.6,42503.325,
空白時間1 (0.5秒),canvas.Screen,9_11_0,2023-01-16T08:42:14.540Z,,,d,,,270,199.76400000000285,timeout,eR.jpg,,,43084.20000000001,43084,42880.40000000002,42881,42503.325,42703.089,
注視(1秒),canvas.Screen,9_11_1,2023-01-16T08:42:15.207Z,,,d,,,270,665.8220000000001,timeout,eR.jpg,,,43751.100000000006,43750.90000000002,43084,43084.5,42703.089,43368.911,
空白時間2 (0.5秒),canvas.Screen,9_11_2,2023-01-16T08:42:15.413Z,,,d,,,270,216.36899999999878,timeout,eR.jpg,,,43956.40000000002,43956.100000000006,43750.90000000002,43751.20000000001,43368.911,43585.28,
刺激提示,canvas.Screen,9_11_3,2023-01-16T08:42:16.010Z,,,d,true,d,270,967.320000000007,response,eR.jpg,d,keypress(j),44553.600000000006,44552.600000000006,43956.100000000006,43956.70000000001,43585.28,44201.146,
フィードバック(0.5秒),canvas.Screen,9_11_4,2023-01-16T08:42:16.245Z,,,d,,,270,216.4409999999989,timeout,eR.jpg,,,44789.40000000002,44789.100000000006,44184.591,44555.600000000006,44201.146,44417.587,
トライアル,flow.Sequence,9_11,2023-01-16T08:42:16.246Z,,,d,,,270,2285.7750000000087,completion,eR.jpg,,,44789.90000000002,44789.100000000006,42880.40000000002,42881,42503.325,44417.587,
空白時間1 (0.5秒),canvas.Screen,9_12_0,2023-01-16T08:42:16.464Z,,,d,,,135,216.37799999999697,timeout,eR.jpg,,,45007.600000000006,45007.20000000001,44789.100000000006,44790,44417.587,44633.965,
注視(1秒),canvas.Screen,9_12_1,2023-01-16T08:42:17.166Z,,,d,,,135,699.1810000000041,timeout,eR.jpg,,,45710.40000000002,45710,45007.20000000001,45008,44633.965,45333.146,
空白時間2 (0.5秒),canvas.Screen,9_12_2,2023-01-16T08:42:17.369Z,,,d,,,135,199.67799999999988,timeout,eR.jpg,,,45912.80000000002,45912.40000000002,45710,45710.600000000006,45333.146,45532.824,
刺激提示,canvas.Screen,9_12_3,2023-01-16T08:42:18.012Z,,,d,true,d,135,1021.5760000000228,response,eR.jpg,d,keypress(j),46555.5,46554.40000000002,45912.40000000002,45913,45532.824,46198.602,
フィードバック(0.5秒),canvas.Screen,9_12_4,2023-01-16T08:42:18.237Z,,,d,,,135,199.75300000000425,timeout,eR.jpg,,,46780.5,46780.20000000001,46181.935,46558,46198.602,46398.355,
トライアル,flow.Sequence,9_12,2023-01-16T08:42:18.237Z,,,d,,,135,2362.613000000012,completion,eR.jpg,,,46780.90000000002,46780.20000000001,44789.100000000006,44790,44417.587,46398.355,
空白時間1 (0.5秒),canvas.Screen,9_13_0,2023-01-16T08:42:18.457Z,,,d,,,0,233.0769999999975,timeout,eR.jpg,,,47001.40000000002,47001.100000000006,46780.20000000001,46781.100000000006,46398.355,46631.432,
注視(1秒),canvas.Screen,9_13_1,2023-01-16T08:42:19.163Z,,,d,,,0,699.0939999999973,timeout,eR.jpg,,,47706.5,47706.100000000006,47001.100000000006,47001.70000000001,46631.432,47330.526,
空白時間2 (0.5秒),canvas.Screen,9_13_2,2023-01-16T08:42:19.375Z,,,d,,,0,216.47899999999936,timeout,eR.jpg,,,47918.40000000002,47918.100000000006,47706.100000000006,47706.80000000002,47330.526,47547.005,
刺激提示,canvas.Screen,9_13_3,2023-01-16T08:42:19.933Z,,,d,true,d,0,929.0950000000084,response,eR.jpg,d,keypress(j),48477.20000000001,48476.100000000006,47918.100000000006,47918.70000000001,47547.005,48129.473,
フィードバック(0.5秒),canvas.Screen,9_13_4,2023-01-16T08:42:20.169Z,,,d,,,0,216.40400000000227,timeout,eR.jpg,,,48713.30000000002,48712.90000000002,48112.874,48480.40000000002,48129.473,48345.877,
トライアル,flow.Sequence,9_13,2023-01-16T08:42:20.170Z,,,d,,,0,2314.54500000002,completion,eR.jpg,,,48713.600000000006,48712.90000000002,46780.20000000001,46781,46398.355,48345.877,
空白時間1 (0.5秒),canvas.Screen,9_14_0,2023-01-16T08:42:20.385Z,,,b,,,225,216.38900000000285,timeout,e.jpg,,,48929,48928.70000000001,48712.90000000002,48713.90000000002,48345.877,48562.266,
注視(1秒),canvas.Screen,9_14_1,2023-01-16T08:42:21.104Z,,,b,,,225,715.8669999999984,timeout,e.jpg,,,49648.30000000002,49647.90000000002,48928.70000000001,48929.30000000002,48562.266,49278.133,
空白時間2 (0.5秒),canvas.Screen,9_14_2,2023-01-16T08:42:21.316Z,,,b,,,225,199.69799999999668,timeout,e.jpg,,,49859.90000000002,49859.600000000006,49647.90000000002,49648.600000000006,49278.133,49477.831,
刺激提示,canvas.Screen,9_14_3,2023-01-16T08:42:21.950Z,,,b,true,b,225,1015.1690000000017,response,e.jpg,b,keypress(f),50493.80000000002,50493,49859.600000000006,49860,49477.831,50143.579,
フィードバック(0.5秒),canvas.Screen,9_14_4,2023-01-16T08:42:22.185Z,,,b,,,225,216.37600000000384,timeout,e.jpg,,,50729,50728.5,50127.052,50496.20000000001,50143.579,50359.955,
トライアル,flow.Sequence,9_14,2023-01-16T08:42:22.185Z,,,b,,,225,2382.6229999999996,completion,e.jpg,,,50729.40000000002,50728.5,48712.90000000002,48713.80000000002,48345.877,50359.955,
空白時間1 (0.5秒),canvas.Screen,9_15_0,2023-01-16T08:42:22.405Z,,,d,,,315,216.5179999999964,timeout,eR.jpg,,,50948.90000000002,50948.600000000006,50728.5,50729.600000000006,50359.955,50576.473,
注視(1秒),canvas.Screen,9_15_1,2023-01-16T08:42:23.110Z,,,d,,,315,699.0679999999993,timeout,eR.jpg,,,51654.100000000006,51653.70000000001,50948.600000000006,50949.20000000001,50576.473,51275.541,
空白時間2 (0.5秒),canvas.Screen,9_15_2,2023-01-16T08:42:23.314Z,,,d,,,315,199.82200000000012,timeout,eR.jpg,,,51858.100000000006,51857.90000000002,51653.70000000001,51654.30000000002,51275.541,51475.363,
刺激提示,canvas.Screen,9_15_3,2023-01-16T08:42:23.902Z,,,d,true,d,315,969.5370000000257,response,eR.jpg,d,keypress(j),52445.70000000001,52444.90000000002,51857.90000000002,51858.40000000002,51475.363,52091.165,
フィードバック(0.5秒),canvas.Screen,9_15_4,2023-01-16T08:42:24.132Z,,,d,,,315,216.3929999999964,timeout,eR.jpg,,,52675.70000000001,52675.40000000002,52074.542,52447.20000000001,52091.165,52307.558,
トライアル,flow.Sequence,9_15,2023-01-16T08:42:24.132Z,,,d,,,315,2315.4450000000215,completion,eR.jpg,,,52675.80000000002,52675.40000000002,50728.5,50729.600000000006,50359.955,52307.558,
タスクのセット,flow.Loop,9,2023-01-16T08:42:24.132Z,,,,,,,31661.496000000025,completion,,,,52676.100000000006,52675.40000000002,21384.20000000001,21384.800000000017,21013.904,52307.558,
空白時間1 (0.5秒),canvas.Screen,10_0_0,2023-01-16T08:42:24.350Z,,,d,,,270,216.38100000000122,timeout,eR.jpg,,,52893.600000000006,52893.30000000002,52675.40000000002,52676.30000000002,52307.558,52523.939,
注視(1秒),canvas.Screen,10_0_1,2023-01-16T08:42:25.048Z,,,d,,,270,699.1140000000014,timeout,eR.jpg,,,53591.90000000002,53591.600000000006,52893.30000000002,52893.80000000002,52523.939,53223.053,
空白時間2 (0.5秒),canvas.Screen,10_0_2,2023-01-16T08:42:25.263Z,,,d,,,270,216.3680000000022,timeout,eR.jpg,,,53807,53806.70000000001,53591.600000000006,53592.100000000006,53223.053,53439.421,
刺激提示,canvas.Screen,10_0_3,2023-01-16T08:42:25.854Z,,,d,true,d,270,957.1790000000037,response,eR.jpg,d,keypress(j),54397.90000000002,54396.600000000006,53806.70000000001,53807.20000000001,53439.421,54038.644,
フィードバック(0.5秒),canvas.Screen,10_0_4,2023-01-16T08:42:26.074Z,,,d,,,270,199.84500000000116,timeout,eR.jpg,,,54617.5,54617.20000000001,54022.03,54399.600000000006,54038.644,54238.489,
トライアル,flow.Sequence,10_0,2023-01-16T08:42:26.074Z,,,d,,,270,2309.6420000000144,completion,eR.jpg,,,54617.80000000002,54617.20000000001,52675.40000000002,52676.20000000001,52307.558,54238.489,
空白時間1 (0.5秒),canvas.Screen,10_1_0,2023-01-16T08:42:26.285Z,,,d,,,90,216.3770000000004,timeout,eR.jpg,,,54829.100000000006,54828.70000000001,54617.20000000001,54617.80000000002,54238.489,54454.866,
注視(1秒),canvas.Screen,10_1_1,2023-01-16T08:42:26.994Z,,,d,,,90,715.6990000000005,timeout,eR.jpg,,,55537.600000000006,55537.20000000001,54828.70000000001,54829.30000000002,54454.866,55170.565,
空白時間2 (0.5秒),canvas.Screen,10_1_2,2023-01-16T08:42:27.215Z,,,d,,,90,216.403999999995,timeout,eR.jpg,,,55758.90000000002,55758.600000000006,55537.20000000001,55537.80000000002,55170.565,55386.969,
刺激提示,canvas.Screen,10_1_3,2023-01-16T08:42:27.776Z,,,d,true,d,90,931.7310000000143,response,eR.jpg,d,keypress(j),56319.600000000006,56318.70000000001,55758.600000000006,55759.100000000006,55386.969,55969.526,
フィードバック(0.5秒),canvas.Screen,10_1_4,2023-01-16T08:42:28.013Z,,,d,,,90,216.3859999999986,timeout,eR.jpg,,,56557.20000000001,56556.70000000001,55952.971,56322.5,55969.526,56185.912,
トライアル,flow.Sequence,10_1,2023-01-16T08:42:28.014Z,,,d,,,90,2318.2110000000102,completion,eR.jpg,,,56557.5,56556.70000000001,54617.20000000001,54617.80000000002,54238.489,56185.912,
空白時間1 (0.5秒),canvas.Screen,10_2_0,2023-01-16T08:42:28.229Z,,,b,,,135,216.44800000000396,timeout,e.jpg,,,56773,56772.600000000006,56556.70000000001,56557.70000000001,56185.912,56402.36,
注視(1秒),canvas.Screen,10_2_1,2023-01-16T08:42:28.927Z,,,b,,,135,699.1160000000018,timeout,e.jpg,,,57470.600000000006,57470.20000000001,56772.600000000006,56773.100000000006,56402.36,57101.476,
空白時間2 (0.5秒),canvas.Screen,10_2_2,2023-01-16T08:42:29.141Z,,,b,,,135,199.78199999999924,timeout,e.jpg,,,57684.5,57684.20000000001,57470.20000000001,57470.80000000002,57101.476,57301.258,
刺激提示,canvas.Screen,10_2_3,2023-01-16T08:42:29.878Z,,,b,true,b,135,1119.5420000000158,response,e.jpg,b,keypress(f),58421.80000000002,58420.80000000002,57684.20000000001,57684.70000000001,57301.258,58100.156,
フィードバック(0.5秒),canvas.Screen,10_2_4,2023-01-16T08:42:30.141Z,,,b,,,135,216.45499999999447,timeout,e.jpg,,,58685.20000000001,58684.90000000002,58083.6,58451.90000000002,58100.156,58316.611,
トライアル,flow.Sequence,10_2,2023-01-16T08:42:30.142Z,,,b,,,135,2498.9880000000267,completion,e.jpg,,,58685.600000000006,58684.90000000002,56556.70000000001,56557.70000000001,56185.912,58316.611,
空白時間1 (0.5秒),canvas.Screen,10_3_0,2023-01-16T08:42:30.376Z,,,d,,,135,233.09300000000076,timeout,eR.jpg,,,58919.600000000006,58919.20000000001,58684.90000000002,58685.70000000001,58316.611,58549.704,
注視(1秒),canvas.Screen,10_3_1,2023-01-16T08:42:31.076Z,,,d,,,135,699.0810000000056,timeout,eR.jpg,,,59619.5,59619.20000000001,58919.20000000001,58919.90000000002,58549.704,59248.785,
空白時間2 (0.5秒),canvas.Screen,10_3_2,2023-01-16T08:42:31.289Z,,,d,,,135,216.387999999999,timeout,eR.jpg,,,59833.20000000001,59832.90000000002,59619.20000000001,59619.70000000001,59248.785,59465.173,
刺激提示,canvas.Screen,10_3_3,2023-01-16T08:42:31.834Z,,,d,true,d,135,912.3269999999975,response,eR.jpg,d,keypress(j),60378.30000000002,60377.5,59832.90000000002,59833.40000000002,59465.173,60038.527,
フィードバック(0.5秒),canvas.Screen,10_3_4,2023-01-16T08:42:32.074Z,,,d,,,135,208.96899999999732,timeout,eR.jpg,,,60618.40000000002,60618,59997.842,60380.90000000002,60038.527,60247.496,
トライアル,flow.Sequence,10_3,2023-01-16T08:42:32.075Z,,,d,,,135,2301.389000000003,completion,eR.jpg,,,60618.70000000001,60618,58684.90000000002,58685.600000000006,58316.611,60247.496,
空白時間1 (0.5秒),canvas.Screen,10_4_0,2023-01-16T08:42:32.294Z,,,b,,,90,216.38300000000163,timeout,e.jpg,,,60838.100000000006,60837.5,60618,60618.80000000002,60247.496,60463.879,
注視(1秒),canvas.Screen,10_4_1,2023-01-16T08:42:32.986Z,,,b,,,90,699.1630000000005,timeout,e.jpg,,,61530.20000000001,61529.80000000002,60837.5,60838.5,60463.879,61163.042,
空白時間2 (0.5秒),canvas.Screen,10_4_2,2023-01-16T08:42:33.203Z,,,b,,,90,216.34700000000157,timeout,e.jpg,,,61746.600000000006,61746.20000000001,61529.80000000002,61530.5,61163.042,61379.389,
刺激提示,canvas.Screen,10_4_3,2023-01-16T08:42:33.701Z,,,b,true,b,90,865.3110000000088,response,e.jpg,b,keypress(f),62245.30000000002,62244.70000000001,61746.20000000001,61746.80000000002,61379.389,61895.344,
フィードバック(0.5秒),canvas.Screen,10_4_4,2023-01-16T08:42:33.934Z,,,b,,,90,199.76200000000244,timeout,e.jpg,,,62477.90000000002,62477.5,61878.755,62247.40000000002,61895.344,62095.106,
トライアル,flow.Sequence,10_4,2023-01-16T08:42:33.934Z,,,b,,,90,2230.004000000001,completion,e.jpg,,,62478.40000000002,62477.5,60618,60618.70000000001,60247.496,62095.106,
空白時間1 (0.5秒),canvas.Screen,10_5_0,2023-01-16T08:42:34.148Z,,,b,,,270,216.46600000000035,timeout,e.jpg,,,62692,62691.5,62477.5,62478.70000000001,62095.106,62311.572,
注視(1秒),canvas.Screen,10_5_1,2023-01-16T08:42:34.835Z,,,b,,,270,699.0550000000003,timeout,e.jpg,,,63378.600000000006,63378.100000000006,62691.5,62692.20000000001,62311.572,63010.627,
空白時間2 (0.5秒),canvas.Screen,10_5_2,2023-01-16T08:42:35.056Z,,,b,,,270,216.47400000000198,timeout,e.jpg,,,63599.80000000002,63599.40000000002,63378.100000000006,63379,63010.627,63227.101,
刺激提示,canvas.Screen,10_5_3,2023-01-16T08:42:35.669Z,,,b,true,b,270,984.5990000000093,response,e.jpg,b,keypress(f),64212.70000000001,64211.70000000001,63599.40000000002,63600,63227.101,63859.633,
フィードバック(0.5秒),canvas.Screen,10_5_4,2023-01-16T08:42:35.903Z,,,b,,,270,216.34700000000157,timeout,e.jpg,,,64446.79999999999,64446.5,63842.919,64214.29999999999,63859.633,64075.98,
トライアル,flow.Sequence,10_5,2023-01-16T08:42:35.903Z,,,b,,,270,2351.3940000000002,completion,e.jpg,,,64447,64446.5,62477.5,62478.600000000006,62095.106,64075.98,
空白時間1 (0.5秒),canvas.Screen,10_6_0,2023-01-16T08:42:36.120Z,,,d,,,225,216.33899999999994,timeout,eR.jpg,,,64663.70000000001,64663.5,64446.5,64447.20000000001,64075.98,64292.319,
注視(1秒),canvas.Screen,10_6_1,2023-01-16T08:42:36.820Z,,,d,,,225,699.1659999999974,timeout,eR.jpg,,,65363.90000000002,65363.5,64663.5,64663.90000000002,64292.319,64991.485,
空白時間2 (0.5秒),canvas.Screen,10_6_2,2023-01-16T08:42:37.031Z,,,d,,,225,232.98399999999674,timeout,eR.jpg,,,65574.70000000001,65574.40000000002,65363.5,65364,64991.485,65224.469,
刺激提示,canvas.Screen,10_6_3,2023-01-16T08:42:37.650Z,,,d,true,d,225,969.0310000000027,response,eR.jpg,d,keypress(j),66194.40000000002,66193.5,65574.40000000002,65574.90000000002,65224.469,65840.44,
フィードバック(0.5秒),canvas.Screen,10_6_4,2023-01-16T08:42:37.889Z,,,d,,,225,216.3359999999957,timeout,eR.jpg,,,66432.90000000002,66432.70000000001,65823.751,66195.70000000001,65840.44,66056.776,
トライアル,flow.Sequence,10_6,2023-01-16T08:42:37.889Z,,,d,,,225,2356.7200000000084,completion,eR.jpg,,,66433.40000000002,66432.70000000001,64446.5,64447.100000000035,64075.98,66056.776,
空白時間1 (0.5秒),canvas.Screen,10_7_0,2023-01-16T08:42:38.090Z,,,b,,,315,199.8350000000064,timeout,e.jpg,,,66633.60000000003,66633.40000000002,66432.70000000001,66433.60000000003,66056.776,66256.611,
注視(1秒),canvas.Screen,10_7_1,2023-01-16T08:42:38.779Z,,,b,,,315,699.0129999999917,timeout,e.jpg,,,67323.29999999999,67323,66633.40000000002,66633.70000000001,66256.611,66955.624,
空白時間2 (0.5秒),canvas.Screen,10_7_2,2023-01-16T08:42:38.996Z,,,b,,,315,216.5679999999993,timeout,e.jpg,,,67540.10000000003,67539.79999999999,67323,67323.60000000003,66955.624,67172.192,
刺激提示,canvas.Screen,10_7_3,2023-01-16T08:42:39.472Z,,,b,true,b,315,842.8080000000045,response,e.jpg,b,keypress(f),68015.60000000003,68015,67539.79999999999,67540.20000000001,67172.192,67654.695,
フィードバック(0.5秒),canvas.Screen,10_7_4,2023-01-16T08:42:39.697Z,,,b,,,315,216.38899999999558,timeout,e.jpg,,,68240.60000000003,68240.40000000002,67638.119,68016.5,67654.695,67871.084,
トライアル,flow.Sequence,10_7,2023-01-16T08:42:39.697Z,,,b,,,315,2183.6240000000253,completion,e.jpg,,,68240.79999999999,68240.40000000002,66432.70000000001,66433.60000000003,66056.776,67871.084,
空白時間1 (0.5秒),canvas.Screen,10_8_0,2023-01-16T08:42:39.907Z,,,d,,,45,199.79699999999139,timeout,eR.jpg,,,68450.90000000002,68450.60000000003,68240.40000000002,68240.90000000002,67871.084,68070.881,
注視(1秒),canvas.Screen,10_8_1,2023-01-16T08:42:40.596Z,,,d,,,45,699.1209999999992,timeout,eR.jpg,,,69140,69139.90000000002,68450.60000000003,68451.20000000001,68070.881,68770.002,
空白時間2 (0.5秒),canvas.Screen,10_8_2,2023-01-16T08:42:40.816Z,,,d,,,45,216.41800000000512,timeout,eR.jpg,,,69359.79999999999,69359.40000000002,69139.90000000002,69140.20000000001,68770.002,68986.42,
刺激提示,canvas.Screen,10_8_3,2023-01-16T08:42:41.279Z,,,d,true,d,45,836.1800000000367,response,eR.jpg,d,keypress(j),69823.40000000002,69822.60000000003,69359.40000000002,69360,68986.42,69469.118,
フィードバック(0.5秒),canvas.Screen,10_8_4,2023-01-16T08:42:41.511Z,,,d,,,45,216.39199999999255,timeout,eR.jpg,,,70054.79999999999,70054.60000000003,69452.494,69824.90000000002,69469.118,69685.51,
トライアル,flow.Sequence,10_8,2023-01-16T08:42:41.511Z,,,d,,,45,2183.5160000000324,completion,eR.jpg,,,70054.90000000002,70054.60000000003,68240.40000000002,68240.90000000002,67871.084,69685.51,
空白時間1 (0.5秒),canvas.Screen,10_9_0,2023-01-16T08:42:41.722Z,,,d,,,0,199.6860000000015,timeout,eR.jpg,,,70265.5,70265,70054.60000000003,70055,69685.51,69885.196,
注視(1秒),canvas.Screen,10_9_1,2023-01-16T08:42:42.414Z,,,d,,,0,699.2130000000034,timeout,eR.jpg,,,70957.40000000002,70957.20000000001,70265,70265.90000000002,69885.196,70584.409,
空白時間2 (0.5秒),canvas.Screen,10_9_2,2023-01-16T08:42:42.625Z,,,d,,,0,216.38999999999942,timeout,eR.jpg,,,71169.29999999999,71168.79999999999,70957.20000000001,70957.60000000003,70584.409,70800.799,
刺激提示,canvas.Screen,10_9_3,2023-01-16T08:42:43.206Z,,,d,true,d,0,948.6010000000242,response,eR.jpg,d,keypress(j),71750.40000000002,71749.40000000002,71168.79999999999,71169.60000000003,70800.799,71399.981,
フィードバック(0.5秒),canvas.Screen,10_9_4,2023-01-16T08:42:43.440Z,,,d,,,0,216.5069999999978,timeout,eR.jpg,,,71984,71983.60000000003,71383.354,71752,71399.981,71616.488,
トライアル,flow.Sequence,10_9,2023-01-16T08:42:43.440Z,,,d,,,0,2298.09000000004,completion,eR.jpg,,,71984.20000000001,71983.60000000003,70054.60000000003,70055,69685.51,71616.488,
空白時間1 (0.5秒),canvas.Screen,10_10_0,2023-01-16T08:42:43.661Z,,,d,,,315,216.32099999999627,timeout,eR.jpg,,,72204.70000000001,72204.29999999999,71983.60000000003,71984.29999999999,71616.488,71832.809,
注視(1秒),canvas.Screen,10_10_1,2023-01-16T08:42:44.368Z,,,d,,,315,699.1140000000014,timeout,eR.jpg,,,72912.10000000003,72911.79999999999,72204.29999999999,72205.10000000003,71832.809,72531.923,
空白時間2 (0.5秒),canvas.Screen,10_10_2,2023-01-16T08:42:44.577Z,,,d,,,315,216.38700000000244,timeout,eR.jpg,,,73121.29999999999,73121,72911.79999999999,72912.20000000001,72531.923,72748.31,
刺激提示,canvas.Screen,10_10_3,2023-01-16T08:42:45.123Z,,,d,true,d,315,918.1900000000023,response,eR.jpg,d,keypress(j),73667.29999999999,73666.5,73121,73121.40000000002,72748.31,73314.185,
フィードバック(0.5秒),canvas.Screen,10_10_4,2023-01-16T08:42:45.360Z,,,d,,,315,216.4320000000007,timeout,eR.jpg,,,73903.40000000002,73903.10000000003,73297.63,73669.5,73314.185,73530.617,
トライアル,flow.Sequence,10_10,2023-01-16T08:42:45.360Z,,,d,,,315,2286.6120000000374,completion,eR.jpg,,,73903.70000000001,73903.10000000003,71983.60000000003,71984.29999999999,71616.488,73530.617,
空白時間1 (0.5秒),canvas.Screen,10_11_0,2023-01-16T08:42:45.573Z,,,d,,,180,216.44100000000617,timeout,eR.jpg,,,74117.40000000002,74117,73903.10000000003,73903.90000000002,73530.617,73747.058,
注視(1秒),canvas.Screen,10_11_1,2023-01-16T08:42:46.269Z,,,d,,,180,699.0819999999949,timeout,eR.jpg,,,74813.20000000001,74813,74117,74117.70000000001,73747.058,74446.14,
空白時間2 (0.5秒),canvas.Screen,10_11_2,2023-01-16T08:42:46.485Z,,,d,,,180,233.02099999999336,timeout,eR.jpg,,,75029.40000000002,75029.10000000003,74813,74813.40000000002,74446.14,74679.161,
刺激提示,canvas.Screen,10_11_3,2023-01-16T08:42:47.261Z,,,d,true,d,180,1124.5390000000189,response,eR.jpg,d,keypress(j),75804.79999999999,75803.70000000001,75029.10000000003,75029.60000000003,74679.161,75444.839,
フィードバック(0.5秒),canvas.Screen,10_11_4,2023-01-16T08:42:47.488Z,,,d,,,180,216.38799999999173,timeout,eR.jpg,,,76032.20000000001,76031.90000000002,75428.215,75807.60000000003,75444.839,75661.227,
トライアル,flow.Sequence,10_11,2023-01-16T08:42:47.488Z,,,d,,,180,2501.283000000025,completion,eR.jpg,,,76032.29999999999,76031.90000000002,73903.10000000003,73903.79999999999,73530.617,75661.227,
空白時間1 (0.5秒),canvas.Screen,10_12_0,2023-01-16T08:42:47.710Z,,,b,,,0,216.41500000000815,timeout,e.jpg,,,76253.5,76253.29999999999,76031.90000000002,76032.29999999999,75661.227,75877.642,
注視(1秒),canvas.Screen,10_12_1,2023-01-16T08:42:48.408Z,,,b,,,0,699.1159999999945,timeout,e.jpg,,,76951.40000000002,76951.20000000001,76253.29999999999,76253.79999999999,75877.642,76576.758,
空白時間2 (0.5秒),canvas.Screen,10_12_2,2023-01-16T08:42:48.620Z,,,b,,,0,216.37699999999313,timeout,e.jpg,,,77163.79999999999,77163.60000000003,76951.20000000001,76951.70000000001,76576.758,76793.135,
刺激提示,canvas.Screen,10_12_3,2023-01-16T08:42:49.123Z,,,b,true,b,0,872.7650000000285,response,e.jpg,b,keypress(f),77666.70000000001,77665.90000000002,77163.60000000003,77164,76793.135,77309.111,
フィードバック(0.5秒),canvas.Screen,10_12_4,2023-01-16T08:42:49.345Z,,,b,,,0,199.81999999999243,timeout,e.jpg,,,77888.79999999999,77888.60000000003,77292.525,77668.70000000001,77309.111,77508.931,
トライアル,flow.Sequence,10_12,2023-01-16T08:42:49.345Z,,,b,,,0,2227.373000000036,completion,e.jpg,,,77889.10000000003,77888.60000000003,76031.90000000002,76032.29999999999,75661.227,77508.931,
空白時間1 (0.5秒),canvas.Screen,10_13_0,2023-01-16T08:42:49.569Z,,,b,,,45,233.0740000000078,timeout,e.jpg,,,78112.90000000002,78112.5,77888.60000000003,77889.20000000001,77508.931,77742.005,
注視(1秒),canvas.Screen,10_13_1,2023-01-16T08:42:50.273Z,,,b,,,45,699.0800000000017,timeout,e.jpg,,,78817,78816.60000000003,78112.5,78113.29999999999,77742.005,78441.085,
空白時間2 (0.5秒),canvas.Screen,10_13_2,2023-01-16T08:42:50.484Z,,,b,,,45,216.42699999999604,timeout,e.jpg,,,79027.79999999999,79027.60000000003,78816.60000000003,78817.20000000001,78441.085,78657.512,
刺激提示,canvas.Screen,10_13_3,2023-01-16T08:42:50.990Z,,,b,true,b,45,875.6880000000092,response,e.jpg,b,keypress(f),79533.90000000002,79533.20000000001,79027.60000000003,79028.10000000003,78657.512,79173.44,
フィードバック(0.5秒),canvas.Screen,10_13_4,2023-01-16T08:42:51.209Z,,,b,,,45,199.80400000000373,timeout,e.jpg,,,79752.79999999999,79752.29999999999,79156.771,79535.5,79173.44,79373.244,
トライアル,flow.Sequence,10_13,2023-01-16T08:42:51.209Z,,,b,,,45,2243.3689999999915,completion,e.jpg,,,79753.10000000003,79752.29999999999,77888.60000000003,77889.20000000001,77508.931,79373.244,
空白時間1 (0.5秒),canvas.Screen,10_14_0,2023-01-16T08:42:51.410Z,,,b,,,225,199.74799999999232,timeout,e.jpg,,,79953.60000000003,79953.29999999999,79752.29999999999,79753.29999999999,79373.244,79572.992,
注視(1秒),canvas.Screen,10_14_1,2023-01-16T08:42:52.101Z,,,b,,,225,699.1500000000087,timeout,e.jpg,,,80645,80644.5,79953.29999999999,79953.79999999999,79572.992,80272.142,
空白時間2 (0.5秒),canvas.Screen,10_14_2,2023-01-16T08:42:52.306Z,,,b,,,225,199.73899999998685,timeout,e.jpg,,,80849.60000000003,80849.40000000002,80644.5,80645.20000000001,80272.142,80471.881,
刺激提示,canvas.Screen,10_14_3,2023-01-16T08:42:53.013Z,,,b,true,b,225,1083.719000000041,response,e.jpg,b,keypress(f),81556.5,81555.60000000003,80849.40000000002,80849.90000000002,80471.881,81204.174,
フィードバック(0.5秒),canvas.Screen,10_14_4,2023-01-16T08:42:53.240Z,,,b,,,225,199.80599999999686,timeout,e.jpg,,,81784.10000000003,81783.70000000001,81187.597,81559.40000000002,81204.174,81403.98,
トライアル,flow.Sequence,10_14,2023-01-16T08:42:53.241Z,,,b,,,225,2410.4560000000056,completion,e.jpg,,,81784.5,81783.70000000001,79752.29999999999,79753.20000000001,79373.244,81403.98,
空白時間1 (0.5秒),canvas.Screen,10_15_0,2023-01-16T08:42:53.449Z,,,b,,,180,216.45100000000093,timeout,e.jpg,,,81992.90000000002,81992.60000000003,81783.70000000001,81784.70000000001,81403.98,81620.431,
注視(1秒),canvas.Screen,10_15_1,2023-01-16T08:42:54.157Z,,,b,,,180,699.0590000000084,timeout,e.jpg,,,82701.20000000001,82701,81992.60000000003,81993.10000000003,81620.431,82319.49,
空白時間2 (0.5秒),canvas.Screen,10_15_2,2023-01-16T08:42:54.354Z,,,b,,,180,199.73399999999674,timeout,e.jpg,,,82898.29999999999,82898,82701,82701.29999999999,82319.49,82519.224,
刺激提示,canvas.Screen,10_15_3,2023-01-16T08:42:55.445Z,,,b,false,b,180,1468.876000000033,response,e.jpg,d,keypress(j),83989,83988.10000000003,82898,82898.5,82519.224,83634.419,
フィードバック(0.5秒),canvas.Screen,10_15_4,2023-01-16T08:42:55.667Z,,,b,,,180,199.83400000000256,timeout,e.jpg,,,84211.29999999999,84210.90000000002,83617.807,83989.70000000001,83634.419,83834.253,
トライアル,flow.Sequence,10_15,2023-01-16T08:42:55.668Z,,,b,,,180,2806.9200000000274,completion,e.jpg,,,84211.60000000003,84210.90000000002,81783.70000000001,81784.70000000001,81403.98,83834.253,
タスクのセット,flow.Loop,10,2023-01-16T08:42:55.668Z,,,,,,,31903.342000000026,completion,,,,84211.90000000002,84210.90000000002,52675.40000000002,52676.20000000001,52307.558,83834.253,
空白時間1 (0.5秒),canvas.Screen,11_0_0,2023-01-16T08:42:55.873Z,,,d,,,0,199.7390000000014,timeout,eR.jpg,,,84417.10000000003,84416.60000000003,84210.90000000002,84212.10000000003,83834.253,84033.992,
注視(1秒),canvas.Screen,11_0_1,2023-01-16T08:42:56.553Z,,,d,,,0,682.4470000000001,timeout,eR.jpg,,,85097.29999999999,85097,84416.60000000003,84417.40000000002,84033.992,84716.439,
空白時間2 (0.5秒),canvas.Screen,11_0_2,2023-01-16T08:42:56.753Z,,,d,,,0,199.73300000000745,timeout,eR.jpg,,,85296.40000000002,85296.10000000003,85097,85097.60000000003,84716.439,84916.172,
刺激提示,canvas.Screen,11_0_3,2023-01-16T08:42:57.427Z,,,d,true,d,0,1053.827999999994,response,eR.jpg,d,keypress(j),85970.79999999999,85970,85296.10000000003,85296.70000000001,84916.172,85615.246,
フィードバック(0.5秒),canvas.Screen,11_0_4,2023-01-16T08:42:57.651Z,,,d,,,0,199.80100000000675,timeout,eR.jpg,,,86194.60000000003,86194.10000000003,85598.68,85973,85615.246,85815.047,
トライアル,flow.Sequence,11_0,2023-01-16T08:42:57.651Z,,,d,,,0,2359.847000000038,completion,eR.jpg,,,86194.90000000002,86194.10000000003,84210.90000000002,84212,83834.253,85815.047,
空白時間1 (0.5秒),canvas.Screen,11_1_0,2023-01-16T08:42:57.854Z,,,d,,,315,199.74799999999232,timeout,eR.jpg,,,86398.20000000001,86398.10000000003,86194.10000000003,86195.10000000003,85815.047,86014.795,
注視(1秒),canvas.Screen,11_1_1,2023-01-16T08:42:58.541Z,,,d,,,315,699.1059999999998,timeout,eR.jpg,,,87084.79999999999,87084.40000000002,86398.10000000003,86398.40000000002,86014.795,86713.901,
空白時間2 (0.5秒),canvas.Screen,11_1_2,2023-01-16T08:42:58.753Z,,,d,,,315,216.37900000000081,timeout,eR.jpg,,,87297.20000000001,87297,87084.40000000002,87085.20000000001,86713.901,86930.28,
刺激提示,canvas.Screen,11_1_3,2023-01-16T08:42:59.389Z,,,d,true,d,315,1001.6200000000244,response,eR.jpg,d,keypress(j),87932.5,87931.90000000002,87297,87297.5,86930.28,87579.416,
フィードバック(0.5秒),canvas.Screen,11_1_4,2023-01-16T08:42:59.620Z,,,d,,,315,216.4320000000007,timeout,eR.jpg,,,88163.79999999999,88163.5,87562.866,87934.60000000003,87579.416,87795.848,
トライアル,flow.Sequence,11_1,2023-01-16T08:42:59.620Z,,,d,,,315,2348.452999999994,completion,eR.jpg,,,88164.20000000001,88163.5,86194.10000000003,86195,85815.047,87795.848,
空白時間1 (0.5秒),canvas.Screen,11_2_0,2023-01-16T08:42:59.838Z,,,b,,,180,216.39400000000023,timeout,e.jpg,,,88382,88381.70000000001,88163.5,88164.29999999999,87795.848,88012.242,
注視(1秒),canvas.Screen,11_2_1,2023-01-16T08:43:00.536Z,,,b,,,180,699.1040000000066,timeout,e.jpg,,,89080,89079.70000000001,88381.70000000001,88382.20000000001,88012.242,88711.346,
空白時間2 (0.5秒),canvas.Screen,11_2_2,2023-01-16T08:43:00.747Z,,,b,,,180,199.75999999999476,timeout,e.jpg,,,89290.5,89290.20000000001,89079.70000000001,89080.20000000001,88711.346,88911.106,
刺激提示,canvas.Screen,11_2_3,2023-01-16T08:43:01.827Z,,,b,true,b,180,1458.5940000000119,response,e.jpg,b,keypress(f),90370.5,90369.70000000001,89290.20000000001,89290.60000000003,88911.106,90042.954,
フィードバック(0.5秒),canvas.Screen,11_2_4,2023-01-16T08:43:02.088Z,,,b,,,180,216.5130000000063,timeout,e.jpg,,,90631.29999999999,90631,90026.36,90395.29999999999,90042.954,90259.467,
トライアル,flow.Sequence,11_2,2023-01-16T08:43:02.088Z,,,b,,,180,2835.152000000002,completion,e.jpg,,,90631.70000000001,90631,88163.5,88164.20000000001,87795.848,90259.467,
空白時間1 (0.5秒),canvas.Screen,11_3_0,2023-01-16T08:43:02.298Z,,,b,,,225,199.74099999999453,timeout,e.jpg,,,90841.60000000003,90841.29999999999,90631,90631.79999999999,90259.467,90459.208,
注視(1秒),canvas.Screen,11_3_1,2023-01-16T08:43:02.991Z,,,b,,,225,699.0439999999944,timeout,e.jpg,,,91534.5,91534,90841.29999999999,90842.60000000003,90459.208,91158.252,
空白時間2 (0.5秒),canvas.Screen,11_3_2,2023-01-16T08:43:03.197Z,,,b,,,225,199.846000000005,timeout,e.jpg,,,91741.10000000003,91740.79999999999,91534,91534.79999999999,91158.252,91358.098,
刺激提示,canvas.Screen,11_3_3,2023-01-16T08:43:03.874Z,,,b,true,b,225,1058.6020000000135,response,e.jpg,b,keypress(f),92417.70000000001,92416.70000000001,91740.79999999999,91741.40000000002,91358.098,92057.077,
フィードバック(0.5秒),canvas.Screen,11_3_4,2023-01-16T08:43:04.097Z,,,b,,,225,216.42899999998917,timeout,e.jpg,,,92641.10000000003,92640.70000000001,92040.483,92419.70000000001,92057.077,92273.506,
トライアル,flow.Sequence,11_3,2023-01-16T08:43:04.098Z,,,b,,,225,2381.2330000000075,completion,e.jpg,,,92641.5,92640.70000000001,90631,90631.79999999999,90259.467,92273.506,
空白時間1 (0.5秒),canvas.Screen,11_4_0,2023-01-16T08:43:04.318Z,,,b,,,45,216.40200000000186,timeout,e.jpg,,,92861.90000000002,92861.70000000001,92640.70000000001,92641.70000000001,92273.506,92489.908,
注視(1秒),canvas.Screen,11_4_1,2023-01-16T08:43:05.015Z,,,b,,,45,699.0679999999993,timeout,e.jpg,,,93558.5,93558.29999999999,92861.70000000001,92862.10000000003,92489.908,93188.976,
空白時間2 (0.5秒),canvas.Screen,11_4_2,2023-01-16T08:43:05.226Z,,,b,,,45,199.79700000000594,timeout,e.jpg,,,93770.10000000003,93769.79999999999,93558.29999999999,93558.60000000003,93188.976,93388.773,
刺激提示,canvas.Screen,11_4_3,2023-01-16T08:43:05.785Z,,,b,true,b,45,939.9270000000106,response,e.jpg,b,keypress(f),94329.29999999999,94328.70000000001,93769.79999999999,93770.29999999999,93388.773,93987.953,
フィードバック(0.5秒),canvas.Screen,11_4_4,2023-01-16T08:43:06.029Z,,,b,,,45,216.4210000000021,timeout,e.jpg,,,94572.60000000003,94572.20000000001,93971.449,94351.40000000002,93987.953,94204.374,
トライアル,flow.Sequence,11_4,2023-01-16T08:43:06.029Z,,,b,,,45,2298.6940000000177,completion,e.jpg,,,94573.10000000003,94572.20000000001,92640.70000000001,92641.70000000001,92273.506,94204.374,
空白時間1 (0.5秒),canvas.Screen,11_5_0,2023-01-16T08:43:06.243Z,,,d,,,45,199.83900000000722,timeout,eR.jpg,,,94786.70000000001,94786.20000000001,94572.20000000001,94573.40000000002,94204.374,94404.213,
注視(1秒),canvas.Screen,11_5_1,2023-01-16T08:43:06.934Z,,,d,,,45,699.0109999999986,timeout,eR.jpg,,,95478,95477.40000000002,94786.20000000001,94787.10000000003,94404.213,95103.224,
空白時間2 (0.5秒),canvas.Screen,11_5_2,2023-01-16T08:43:07.163Z,,,d,,,45,233.10199999999895,timeout,eR.jpg,,,95707.20000000001,95706.79999999999,95477.40000000002,95478.40000000002,95103.224,95336.326,
刺激提示,canvas.Screen,11_5_3,2023-01-16T08:43:07.898Z,,,d,true,d,45,1104.5740000000224,response,eR.jpg,d,keypress(j),96442.10000000003,96440.90000000002,95706.79999999999,95707.5,95336.326,96085.304,
フィードバック(0.5秒),canvas.Screen,11_5_4,2023-01-16T08:43:08.137Z,,,d,,,45,216.44599999999627,timeout,eR.jpg,,,96680.70000000001,96680.20000000001,96068.67,96444.90000000002,96085.304,96301.75,
トライアル,flow.Sequence,11_5,2023-01-16T08:43:08.137Z,,,d,,,45,2475.8260000000155,completion,eR.jpg,,,96681,96680.20000000001,94572.20000000001,94573.29999999999,94204.374,96301.75,
空白時間1 (0.5秒),canvas.Screen,11_6_0,2023-01-16T08:43:08.338Z,,,b,,,135,199.71199999999953,timeout,e.jpg,,,96881.60000000003,96881.40000000002,96680.20000000001,96681.20000000001,96301.75,96501.462,
注視(1秒),canvas.Screen,11_6_1,2023-01-16T08:43:09.026Z,,,b,,,135,699.1600000000035,timeout,e.jpg,,,97569.90000000002,97569.70000000001,96881.40000000002,96881.79999999999,96501.462,97200.622,
空白時間2 (0.5秒),canvas.Screen,11_6_2,2023-01-16T08:43:09.242Z,,,b,,,135,216.37699999999313,timeout,e.jpg,,,97785.90000000002,97785.70000000001,97569.70000000001,97570.20000000001,97200.622,97416.999,
刺激提示,canvas.Screen,11_6_3,2023-01-16T08:43:10.311Z,,,b,false,b,135,1436.8009999999922,response,e.jpg,d,keypress(j),98855.29999999999,98853.79999999999,97785.70000000001,97786.10000000003,97416.999,98515.539,
フィードバック(0.5秒),canvas.Screen,11_6_4,2023-01-16T08:43:10.555Z,,,b,,,135,199.7899999999936,timeout,e.jpg,,,99098.5,99098.10000000003,98498.989,98872.10000000003,98515.539,98715.329,
トライアル,flow.Sequence,11_6,2023-01-16T08:43:10.555Z,,,b,,,135,2796.350000000035,completion,e.jpg,,,99098.70000000001,99098.10000000003,96680.20000000001,96681.20000000001,96301.75,98715.329,
空白時間1 (0.5秒),canvas.Screen,11_7_0,2023-01-16T08:43:10.766Z,,,b,,,315,216.4780000000028,timeout,e.jpg,,,99309.79999999999,99309.5,99098.10000000003,99098.79999999999,98715.329,98931.807,
注視(1秒),canvas.Screen,11_7_1,2023-01-16T08:43:11.460Z,,,b,,,315,699.0240000000049,timeout,e.jpg,,,100003.60000000003,100003.10000000003,99309.5,99310.10000000003,98931.807,99630.831,
空白時間2 (0.5秒),canvas.Screen,11_7_2,2023-01-16T08:43:11.667Z,,,b,,,315,199.72999999999593,timeout,e.jpg,,,100210.90000000002,100210.5,100003.10000000003,100003.79999999999,99630.831,99830.561,
刺激提示,canvas.Screen,11_7_3,2023-01-16T08:43:12.167Z,,,b,true,b,315,879.7389999999868,response,e.jpg,b,keypress(f),100711,100710.29999999999,100210.5,100211.10000000003,99830.561,100346.551,
フィードバック(0.5秒),canvas.Screen,11_7_4,2023-01-16T08:43:12.385Z,,,b,,,315,199.76900000000023,timeout,e.jpg,,,100928.70000000001,100928.29999999999,100329.945,100712.5,100346.551,100546.32,
トライアル,flow.Sequence,11_7,2023-01-16T08:43:12.385Z,,,b,,,315,2212.9709999999905,completion,e.jpg,,,100929,100928.29999999999,99098.10000000003,99098.79999999999,98715.329,100546.32,
空白時間1 (0.5秒),canvas.Screen,11_8_0,2023-01-16T08:43:12.597Z,,,b,,,270,216.47999999999593,timeout,e.jpg,,,101140.70000000001,101140.5,100928.29999999999,100929.29999999999,100546.32,100762.8,
注視(1秒),canvas.Screen,11_8_1,2023-01-16T08:43:13.293Z,,,b,,,270,699.0209999999934,timeout,e.jpg,,,101837,101836.60000000003,101140.5,101140.90000000002,100762.8,101461.821,
空白時間2 (0.5秒),canvas.Screen,11_8_2,2023-01-16T08:43:13.498Z,,,b,,,270,199.80800000000454,timeout,e.jpg,,,102042.10000000003,102041.79999999999,101836.60000000003,101837.10000000003,101461.821,101661.629,
刺激提示,canvas.Screen,11_8_3,2023-01-16T08:43:13.995Z,,,b,true,b,270,876.0710000000108,response,e.jpg,b,keypress(f),102538.70000000001,102537.70000000001,102041.79999999999,102042.29999999999,101661.629,102194.205,
フィードバック(0.5秒),canvas.Screen,11_8_4,2023-01-16T08:43:14.238Z,,,b,,,270,216.4140000000043,timeout,e.jpg,,,102781.40000000002,102780.90000000002,102160.953,102541.40000000002,102194.205,102410.619,
トライアル,flow.Sequence,11_8,2023-01-16T08:43:14.238Z,,,b,,,270,2234.5800000000163,completion,e.jpg,,,102781.90000000002,102780.90000000002,100928.29999999999,100929.20000000001,100546.32,102410.619,
空白時間1 (0.5秒),canvas.Screen,11_9_0,2023-01-16T08:43:14.456Z,,,d,,,90,216.43799999999464,timeout,eR.jpg,,,102999.60000000003,102999.10000000003,102780.90000000002,102782.20000000001,102410.619,102627.057,
注視(1秒),canvas.Screen,11_9_1,2023-01-16T08:43:15.153Z,,,d,,,90,699.096000000005,timeout,eR.jpg,,,103697.20000000001,103696.79999999999,102999.10000000003,102999.90000000002,102627.057,103326.153,
空白時間2 (0.5秒),canvas.Screen,11_9_2,2023-01-16T08:43:15.366Z,,,d,,,90,216.47399999998743,timeout,eR.jpg,,,103910.40000000002,103910,103696.79999999999,103697.40000000002,103326.153,103542.627,
刺激提示,canvas.Screen,11_9_3,2023-01-16T08:43:15.997Z,,,d,true,d,90,996.6729999999952,response,eR.jpg,d,keypress(j),104540.5,104539.29999999999,103910,103910.60000000003,103542.627,104191.714,
フィードバック(0.5秒),canvas.Screen,11_9_4,2023-01-16T08:43:16.239Z,,,d,,,90,216.37699999999313,timeout,eR.jpg,,,104782.60000000003,104782.29999999999,104175.079,104542.5,104191.714,104408.091,
トライアル,flow.Sequence,11_9,2023-01-16T08:43:16.239Z,,,d,,,90,2371.6809999999823,completion,eR.jpg,,,104783.20000000001,104782.29999999999,102780.90000000002,102782.10000000003,102410.619,104408.091,
空白時間1 (0.5秒),canvas.Screen,11_10_0,2023-01-16T08:43:16.443Z,,,d,,,180,199.7740000000049,timeout,eR.jpg,,,104987.20000000001,104986.90000000002,104782.29999999999,104783.5,104408.091,104607.865,
注視(1秒),canvas.Screen,11_10_1,2023-01-16T08:43:17.138Z,,,d,,,180,699.0939999999973,timeout,eR.jpg,,,105682,105681.79999999999,104986.90000000002,104987.40000000002,104607.865,105306.959,
空白時間2 (0.5秒),canvas.Screen,11_10_2,2023-01-16T08:43:17.353Z,,,d,,,180,216.38700000000244,timeout,eR.jpg,,,105896.70000000001,105896.29999999999,105681.79999999999,105682.40000000002,105306.959,105523.346,
刺激提示,canvas.Screen,11_10_3,2023-01-16T08:43:18.454Z,,,d,true,d,180,1473.3540000000066,response,eR.jpg,d,keypress(j),106997.60000000003,106996.70000000001,105896.29999999999,105896.90000000002,105523.346,106655.23,
フィードバック(0.5秒),canvas.Screen,11_10_4,2023-01-16T08:43:18.696Z,,,d,,,180,216.40800000001036,timeout,eR.jpg,,,107239.40000000002,107239,106638.628,107015.60000000003,106655.23,106871.638,
トライアル,flow.Sequence,11_10,2023-01-16T08:43:18.696Z,,,d,,,180,2830.9089999999997,completion,eR.jpg,,,107239.90000000002,107239,104782.29999999999,104783.29999999999,104408.091,106871.638,
空白時間1 (0.5秒),canvas.Screen,11_11_0,2023-01-16T08:43:18.906Z,,,d,,,225,199.7509999999893,timeout,eR.jpg,,,107450.10000000003,107449.70000000001,107239,107240.10000000003,106871.638,107071.389,
注視(1秒),canvas.Screen,11_11_1,2023-01-16T08:43:19.596Z,,,d,,,225,699.1270000000077,timeout,eR.jpg,,,108140,108139.70000000001,107449.70000000001,107450.29999999999,107071.389,107770.516,
空白時間2 (0.5秒),canvas.Screen,11_11_2,2023-01-16T08:43:19.815Z,,,d,,,225,216.3819999999978,timeout,eR.jpg,,,108359,108358.60000000003,108139.70000000001,108140.29999999999,107770.516,107986.898,
刺激提示,canvas.Screen,11_11_3,2023-01-16T08:43:20.476Z,,,d,true,d,225,1031.7020000000339,response,eR.jpg,d,keypress(j),109019.40000000002,109018.60000000003,108358.60000000003,108359.20000000001,107986.898,108669.333,
フィードバック(0.5秒),canvas.Screen,11_11_4,2023-01-16T08:43:20.716Z,,,d,,,225,216.42600000000675,timeout,eR.jpg,,,109260.29999999999,109259.79999999999,108652.682,109021.40000000002,108669.333,108885.759,
トライアル,flow.Sequence,11_11,2023-01-16T08:43:20.717Z,,,d,,,225,2388.161999999982,completion,eR.jpg,,,109260.60000000003,109259.79999999999,107239,107240,106871.638,108885.759,
空白時間1 (0.5秒),canvas.Screen,11_12_0,2023-01-16T08:43:20.930Z,,,d,,,270,216.43399999999383,timeout,eR.jpg,,,109474.10000000003,109473.79999999999,109259.79999999999,109260.90000000002,108885.759,109102.193,
注視(1秒),canvas.Screen,11_12_1,2023-01-16T08:43:21.629Z,,,d,,,270,699.0770000000048,timeout,eR.jpg,,,110173.29999999999,110173,109473.79999999999,109474.29999999999,109102.193,109801.27,
空白時間2 (0.5秒),canvas.Screen,11_12_2,2023-01-16T08:43:21.850Z,,,d,,,270,216.41099999999278,timeout,eR.jpg,,,110393.5,110393.10000000003,110173,110173.40000000002,109801.27,110017.681,
刺激提示,canvas.Screen,11_12_3,2023-01-16T08:43:22.357Z,,,d,true,d,270,882.9190000000381,response,eR.jpg,d,keypress(j),110901.29999999999,110900.60000000003,110393.10000000003,110393.70000000001,110017.681,110550.272,
フィードバック(0.5秒),canvas.Screen,11_12_4,2023-01-16T08:43:22.589Z,,,d,,,270,199.8139999999985,timeout,eR.jpg,,,111132.5,111132.10000000003,110533.697,110903.29999999999,110550.272,110750.086,
トライアル,flow.Sequence,11_12,2023-01-16T08:43:22.589Z,,,d,,,270,2246.3410000000295,completion,eR.jpg,,,111132.90000000002,111132.10000000003,109259.79999999999,109260.79999999999,108885.759,110750.086,
空白時間1 (0.5秒),canvas.Screen,11_13_0,2023-01-16T08:43:22.803Z,,,d,,,135,216.4030000000057,timeout,eR.jpg,,,111347.10000000003,111346.79999999999,111132.10000000003,111133.20000000001,110750.086,110966.489,
注視(1秒),canvas.Screen,11_13_1,2023-01-16T08:43:23.496Z,,,d,,,135,699.0650000000023,timeout,eR.jpg,,,112040,112039.60000000003,111346.79999999999,111347.29999999999,110966.489,111665.554,
空白時間2 (0.5秒),canvas.Screen,11_13_2,2023-01-16T08:43:23.711Z,,,d,,,135,216.4539999999979,timeout,eR.jpg,,,112254.5,112254.20000000001,112039.60000000003,112040.29999999999,111665.554,111882.008,
刺激提示,canvas.Screen,11_13_3,2023-01-16T08:43:24.635Z,,,d,true,d,135,1295.8920000000217,response,eR.jpg,d,keypress(j),113178.79999999999,113177.90000000002,112254.20000000001,112254.70000000001,111882.008,112830.709,
フィードバック(0.5秒),canvas.Screen,11_13_4,2023-01-16T08:43:24.867Z,,,d,,,135,199.7899999999936,timeout,eR.jpg,,,113410.5,113410.10000000003,112797.479,113179.90000000002,112830.709,113030.499,
トライアル,flow.Sequence,11_13,2023-01-16T08:43:24.867Z,,,d,,,135,2660.0140000000392,completion,eR.jpg,,,113410.90000000002,113410.10000000003,111132.10000000003,111133.10000000003,110750.086,113030.499,
空白時間1 (0.5秒),canvas.Screen,11_14_0,2023-01-16T08:43:25.066Z,,,b,,,90,199.75800000000163,timeout,e.jpg,,,113609.90000000002,113609.60000000003,113410.10000000003,113411.10000000003,113030.499,113230.257,
注視(1秒),canvas.Screen,11_14_1,2023-01-16T08:43:25.761Z,,,b,,,90,699.1120000000083,timeout,e.jpg,,,114305.29999999999,114305,113609.60000000003,113610.10000000003,113230.257,113929.369,
空白時間2 (0.5秒),canvas.Screen,11_14_2,2023-01-16T08:43:25.979Z,,,b,,,90,216.38799999999173,timeout,e.jpg,,,114523,114522.60000000003,114305,114305.90000000002,113929.369,114145.757,
刺激提示,canvas.Screen,11_14_3,2023-01-16T08:43:26.553Z,,,b,true,b,90,949.7430000000022,response,e.jpg,b,keypress(f),115096.40000000002,115095.5,114522.60000000003,114523.29999999999,114145.757,114744.953,
フィードバック(0.5秒),canvas.Screen,11_14_4,2023-01-16T08:43:26.790Z,,,b,,,90,216.4310000000114,timeout,e.jpg,,,115333.90000000002,115333.60000000003,114728.316,115099.10000000003,114744.953,114961.384,
トライアル,flow.Sequence,11_14,2023-01-16T08:43:26.791Z,,,b,,,90,2303.1010000000388,completion,e.jpg,,,115334.29999999999,115333.60000000003,113410.10000000003,113411.10000000003,113030.499,114961.384,
空白時間1 (0.5秒),canvas.Screen,11_15_0,2023-01-16T08:43:27.006Z,,,b,,,0,216.375,timeout,e.jpg,,,115549.79999999999,115549.5,115333.60000000003,115334.60000000003,114961.384,115177.759,
注視(1秒),canvas.Screen,11_15_1,2023-01-16T08:43:27.705Z,,,b,,,0,699.0800000000017,timeout,e.jpg,,,116249.29999999999,116248.90000000002,115549.5,115550.10000000003,115177.759,115876.839,
空白時間2 (0.5秒),canvas.Screen,11_15_2,2023-01-16T08:43:27.920Z,,,b,,,0,216.43599999998696,timeout,e.jpg,,,116464.40000000002,116464,116248.90000000002,116249.5,115876.839,116093.275,
刺激提示,canvas.Screen,11_15_3,2023-01-16T08:43:28.388Z,,,b,true,b,0,838.0249999999942,response,e.jpg,b,keypress(f),116932,116931.29999999999,116464,116464.60000000003,116093.275,116575.961,
フィードバック(0.5秒),canvas.Screen,11_15_4,2023-01-16T08:43:28.616Z,,,b,,,0,216.471000000005,timeout,e.jpg,,,117159.60000000003,117159.20000000001,116559.338,116932.60000000003,116575.961,116792.432,
トライアル,flow.Sequence,11_15,2023-01-16T08:43:28.616Z,,,b,,,0,2197.816000000006,completion,e.jpg,,,117160.10000000003,117159.20000000001,115333.60000000003,115334.60000000003,114961.384,116792.432,
タスクのセット,flow.Loop,11,2023-01-16T08:43:28.617Z,,,,,,,33324.947000000015,completion,,,,117160.40000000002,117159.20000000001,84210.90000000002,84212,83834.253,116792.432,
空白時間1 (0.5秒),canvas.Screen,12_0_0,2023-01-16T08:43:28.840Z,,,d,,,135,216.35199999999895,timeout,eR.jpg,,,117383.60000000003,117383.29999999999,117159.20000000001,117160.70000000001,116792.432,117008.784,
注視(1秒),canvas.Screen,12_0_1,2023-01-16T08:43:29.538Z,,,d,,,135,699.1159999999945,timeout,eR.jpg,,,118081.90000000002,118081.5,117383.29999999999,117383.79999999999,117008.784,117707.9,
空白時間2 (0.5秒),canvas.Screen,12_0_2,2023-01-16T08:43:29.749Z,,,d,,,135,216.39100000000326,timeout,eR.jpg,,,118292.90000000002,118292.5,118081.5,118082.79999999999,117707.9,117924.291,
刺激提示,canvas.Screen,12_0_3,2023-01-16T08:43:30.496Z,,,d,true,d,135,1114.2090000000026,response,eR.jpg,d,keypress(j),119039.5,119038.5,118292.5,118293.10000000003,117924.291,118689.984,
フィードバック(0.5秒),canvas.Screen,12_0_4,2023-01-16T08:43:30.733Z,,,d,,,135,216.34300000000803,timeout,eR.jpg,,,119277.10000000003,119276.70000000001,118673.291,119041.5,118689.984,118906.327,
トライアル,flow.Sequence,12_0,2023-01-16T08:43:30.734Z,,,d,,,135,2484.268000000011,completion,eR.jpg,,,119277.5,119276.70000000001,117159.20000000001,117160.70000000001,116792.432,118906.327,
空白時間1 (0.5秒),canvas.Screen,12_1_0,2023-01-16T08:43:30.951Z,,,b,,,0,216.42499999998836,timeout,e.jpg,,,119494.5,119494.10000000003,119276.70000000001,119277.79999999999,118906.327,119122.752,
注視(1秒),canvas.Screen,12_1_1,2023-01-16T08:43:31.647Z,,,b,,,0,699.1180000000022,timeout,e.jpg,,,120190.79999999999,120190.40000000002,119494.10000000003,119494.79999999999,119122.752,119821.87,
空白時間2 (0.5秒),canvas.Screen,12_1_2,2023-01-16T08:43:31.858Z,,,b,,,0,199.77500000000873,timeout,e.jpg,,,120402.29999999999,120402,120190.40000000002,120191.10000000003,119821.87,120021.645,
刺激提示,canvas.Screen,12_1_3,2023-01-16T08:43:32.347Z,,,b,true,b,0,868.1549999999843,response,e.jpg,b,keypress(f),120890.5,120889.79999999999,120402,120402.60000000003,120021.645,120537.62,
フィードバック(0.5秒),canvas.Screen,12_1_4,2023-01-16T08:43:32.576Z,,,b,,,0,199.77700000000186,timeout,e.jpg,,,121119.90000000002,121119.60000000003,120521.015,120891.70000000001,120537.62,120737.397,
トライアル,flow.Sequence,12_1,2023-01-16T08:43:32.576Z,,,b,,,0,2213.27300000003,completion,e.jpg,,,121120.29999999999,121119.60000000003,119276.70000000001,119277.70000000001,118906.327,120737.397,
空白時間1 (0.5秒),canvas.Screen,12_2_0,2023-01-16T08:43:32.794Z,,,d,,,90,233.07099999999627,timeout,eR.jpg,,,121337.60000000003,121337.20000000001,121119.60000000003,121120.5,120737.397,120970.468,
注視(1秒),canvas.Screen,12_2_1,2023-01-16T08:43:33.506Z,,,d,,,90,699.0510000000068,timeout,eR.jpg,,,122049.5,122049.10000000003,121337.20000000001,121337.79999999999,120970.468,121669.519,
空白時間2 (0.5秒),canvas.Screen,12_2_2,2023-01-16T08:43:33.710Z,,,d,,,90,216.50299999999697,timeout,eR.jpg,,,122253.90000000002,122253.5,122049.10000000003,122049.60000000003,121669.519,121886.022,
刺激提示,canvas.Screen,12_2_3,2023-01-16T08:43:34.289Z,,,d,true,d,90,945.9780000000028,response,eR.jpg,d,keypress(j),122832.90000000002,122832,122253.5,122254.20000000001,121886.022,122485.137,
フィードバック(0.5秒),canvas.Screen,12_2_4,2023-01-16T08:43:34.523Z,,,d,,,90,199.7850000000035,timeout,eR.jpg,,,123067,123066.29999999999,122468.528,122835.70000000001,122485.137,122684.922,
トライアル,flow.Sequence,12_2,2023-01-16T08:43:34.524Z,,,d,,,90,2328.902999999991,completion,eR.jpg,,,123068,123066.29999999999,121119.60000000003,121120.5,120737.397,122684.922,
空白時間1 (0.5秒),canvas.Screen,12_3_0,2023-01-16T08:43:34.740Z,,,b,,,315,216.37900000000081,timeout,e.jpg,,,123283.90000000002,123283.5,123066.29999999999,123068.29999999999,122684.922,122901.301,
注視(1秒),canvas.Screen,12_3_1,2023-01-16T08:43:35.430Z,,,b,,,315,699.1369999999879,timeout,e.jpg,,,123973.70000000001,123973.40000000002,123283.5,123284.20000000001,122901.301,123600.438,
空白時間2 (0.5秒),canvas.Screen,12_3_2,2023-01-16T08:43:35.646Z,,,b,,,315,216.3630000000121,timeout,e.jpg,,,124189.79999999999,124189.60000000003,123973.40000000002,123974.20000000001,123600.438,123816.801,
刺激提示,canvas.Screen,12_3_3,2023-01-16T08:43:36.086Z,,,b,true,b,315,811.9989999999816,response,e.jpg,b,keypress(f),124629.60000000003,124628.79999999999,124189.60000000003,124190.10000000003,123816.801,124266.205,
フィードバック(0.5秒),canvas.Screen,12_3_4,2023-01-16T08:43:36.315Z,,,b,,,315,216.39400000000023,timeout,e.jpg,,,124858.79999999999,124858.5,124249.559,124631.79999999999,124266.205,124482.599,
トライアル,flow.Sequence,12_3,2023-01-16T08:43:36.315Z,,,b,,,315,2173.577999999994,completion,e.jpg,,,124859.10000000003,124858.5,123066.29999999999,123068.29999999999,122684.922,124482.599,
空白時間1 (0.5秒),canvas.Screen,12_4_0,2023-01-16T08:43:36.526Z,,,d,,,270,216.45699999999488,timeout,eR.jpg,,,125069.60000000003,125069.20000000001,124858.5,124859.40000000002,124482.599,124699.056,
注視(1秒),canvas.Screen,12_4_1,2023-01-16T08:43:37.226Z,,,d,,,270,699.0869999999995,timeout,eR.jpg,,,125770.20000000001,125769.90000000002,125069.20000000001,125069.79999999999,124699.056,125398.143,
空白時間2 (0.5秒),canvas.Screen,12_4_2,2023-01-16T08:43:37.439Z,,,d,,,270,216.37700000000768,timeout,eR.jpg,,,125983.40000000002,125983,125769.90000000002,125770.40000000002,125398.143,125614.52,
刺激提示,canvas.Screen,12_4_3,2023-01-16T08:43:38.043Z,,,d,true,d,270,971.2799999999843,response,eR.jpg,d,keypress(j),126586.60000000003,126585.79999999999,125983,125983.60000000003,125614.52,126247.028,
フィードバック(0.5秒),canvas.Screen,12_4_4,2023-01-16T08:43:38.284Z,,,d,,,270,199.77499999999418,timeout,eR.jpg,,,126827.79999999999,126827.29999999999,126230.452,126610.10000000003,126247.028,126446.803,
トライアル,flow.Sequence,12_4,2023-01-16T08:43:38.284Z,,,d,,,270,2344.7009999999864,completion,eR.jpg,,,126828.20000000001,126827.29999999999,124858.5,124859.40000000002,124482.599,126446.803,
空白時間1 (0.5秒),canvas.Screen,12_5_0,2023-01-16T08:43:38.484Z,,,b,,,135,199.74499999999534,timeout,e.jpg,,,127028.29999999999,127027.20000000001,126827.29999999999,126828.5,126446.803,126646.548,
注視(1秒),canvas.Screen,12_5_1,2023-01-16T08:43:39.171Z,,,b,,,135,699.125,timeout,e.jpg,,,127714.79999999999,127714.5,127027.20000000001,127028.60000000003,126646.548,127345.673,
空白時間2 (0.5秒),canvas.Screen,12_5_2,2023-01-16T08:43:39.387Z,,,b,,,135,216.3740000000107,timeout,e.jpg,,,127931.10000000003,127930.79999999999,127714.5,127715.10000000003,127345.673,127562.047,
刺激提示,canvas.Screen,12_5_3,2023-01-16T08:43:40.115Z,,,b,true,b,135,1096.053000000029,response,e.jpg,b,keypress(f),128659.10000000003,128658.10000000003,127930.79999999999,127931.40000000002,127562.047,128325.27,
フィードバック(0.5秒),canvas.Screen,12_5_4,2023-01-16T08:43:40.356Z,,,b,,,135,202.28699999999662,timeout,e.jpg,,,128900.20000000001,128899.70000000001,128277.771,128660.79999999999,128325.27,128527.557,
トライアル,flow.Sequence,12_5,2023-01-16T08:43:40.357Z,,,b,,,135,2452.8970000000118,completion,e.jpg,,,128900.40000000002,128899.70000000001,126827.29999999999,126828.29999999999,126446.803,128527.557,
空白時間1 (0.5秒),canvas.Screen,12_6_0,2023-01-16T08:43:40.563Z,,,b,,,180,199.67900000000373,timeout,e.jpg,,,129107.20000000001,129106.70000000001,128899.70000000001,128900.70000000001,128527.557,128727.236,
注視(1秒),canvas.Screen,12_6_1,2023-01-16T08:43:41.251Z,,,b,,,180,699.1149999999907,timeout,e.jpg,,,129795.29999999999,129794.90000000002,129106.70000000001,129107.40000000002,128727.236,129426.351,
空白時間2 (0.5秒),canvas.Screen,12_6_2,2023-01-16T08:43:41.476Z,,,b,,,180,216.36200000000827,timeout,e.jpg,,,130019.40000000002,130019.20000000001,129794.90000000002,129795.5,129426.351,129642.713,
刺激提示,canvas.Screen,12_6_3,2023-01-16T08:43:42.017Z,,,b,true,b,180,916.9870000000083,response,e.jpg,b,keypress(f),130560.40000000002,130559.70000000001,130019.20000000001,130019.60000000003,129642.713,130208.7,
フィードバック(0.5秒),canvas.Screen,12_6_4,2023-01-16T08:43:42.256Z,,,b,,,180,216.35400000000664,timeout,e.jpg,,,130799.70000000001,130799.29999999999,130192.096,130562.20000000001,130208.7,130425.054,
トライアル,flow.Sequence,12_6,2023-01-16T08:43:42.256Z,,,b,,,180,2271.7429999999877,completion,e.jpg,,,130800,130799.29999999999,128899.70000000001,128900.60000000003,128527.557,130425.054,
空白時間1 (0.5秒),canvas.Screen,12_7_0,2023-01-16T08:43:42.476Z,,,b,,,45,216.41999999999825,timeout,e.jpg,,,131019.5,131018.60000000003,130799.29999999999,130800.20000000001,130425.054,130641.474,
注視(1秒),canvas.Screen,12_7_1,2023-01-16T08:43:43.161Z,,,b,,,45,682.4799999999959,timeout,e.jpg,,,131705.10000000003,131704.7,131018.60000000003,131019.70000000001,130641.474,131323.954,
空白時間2 (0.5秒),canvas.Screen,12_7_2,2023-01-16T08:43:43.361Z,,,b,,,45,199.74400000000605,timeout,e.jpg,,,131905.2,131904.8,131704.7,131705.5,131323.954,131523.698,
刺激提示,canvas.Screen,12_7_3,2023-01-16T08:43:43.939Z,,,b,true,b,45,957.902000000031,response,e.jpg,b,keypress(f),132482.40000000002,132481.60000000003,131904.8,131905.40000000002,131523.698,132122.906,
フィードバック(0.5秒),canvas.Screen,12_7_4,2023-01-16T08:43:44.164Z,,,b,,,45,216.38400000002002,timeout,e.jpg,,,132707.40000000002,132707.2,132106.269,132485.10000000003,132122.906,132339.29,
トライアル,flow.Sequence,12_7,2023-01-16T08:43:44.164Z,,,b,,,45,2282.146000000008,completion,e.jpg,,,132707.7,132707.2,130799.29999999999,130800.20000000001,130425.054,132339.29,
空白時間1 (0.5秒),canvas.Screen,12_8_0,2023-01-16T08:43:44.394Z,,,d,,,180,216.39100000000326,timeout,eR.jpg,,,132937.60000000003,132937.3,132707.2,132707.8,132339.29,132555.681,
注視(1秒),canvas.Screen,12_8_1,2023-01-16T08:43:45.084Z,,,d,,,180,699.1559999999881,timeout,eR.jpg,,,133628,133627.8,132937.3,132937.8,132555.681,133254.837,
空白時間2 (0.5秒),canvas.Screen,12_8_2,2023-01-16T08:43:45.298Z,,,d,,,180,216.3410000000149,timeout,eR.jpg,,,133841.7,133841.40000000002,133627.8,133628.2,133254.837,133471.178,
刺激提示,canvas.Screen,12_8_3,2023-01-16T08:43:46.021Z,,,d,true,d,180,1092.5219999999972,response,eR.jpg,d,keypress(j),134565.2,134563.7,133841.40000000002,133842,133471.178,134253.535,
フィードバック(0.5秒),canvas.Screen,12_8_4,2023-01-16T08:43:46.300Z,,,d,,,180,216.3759999999893,timeout,eR.jpg,,,134844.2,134843.8,134236.929,134605.90000000002,134253.535,134469.911,
トライアル,flow.Sequence,12_8,2023-01-16T08:43:46.301Z,,,d,,,180,2504.50999999998,completion,eR.jpg,,,134844.60000000003,134843.8,132707.2,132707.8,132339.29,134469.911,
空白時間1 (0.5秒),canvas.Screen,12_9_0,2023-01-16T08:43:46.510Z,,,d,,,45,216.48600000000442,timeout,eR.jpg,,,135054,135049.8,134843.8,134844.8,134469.911,134686.397,
注視(1秒),canvas.Screen,12_9_1,2023-01-16T08:43:47.215Z,,,d,,,45,699.0499999999884,timeout,eR.jpg,,,135759.2,135759,135049.8,135054.3,134686.397,135385.447,
空白時間2 (0.5秒),canvas.Screen,12_9_2,2023-01-16T08:43:47.429Z,,,d,,,45,216.42300000000978,timeout,eR.jpg,,,135973.3,135973,135759,135759.5,135385.447,135601.87,
刺激提示,canvas.Screen,12_9_3,2023-01-16T08:43:48.073Z,,,d,true,d,45,1014.429999999993,response,eR.jpg,d,keypress(j),136617.3,136616.3,135973,135973.60000000003,135601.87,136267.693,
フィードバック(0.5秒),canvas.Screen,12_9_4,2023-01-16T08:43:48.306Z,,,d,,,45,199.76999999998952,timeout,eR.jpg,,,136849.8,136849.5,136250.992,136618.90000000002,136267.693,136467.463,
トライアル,flow.Sequence,12_9,2023-01-16T08:43:48.306Z,,,d,,,45,2379.589000000007,completion,eR.jpg,,,136850.2,136849.5,134843.8,134844.8,134469.911,136467.463,
空白時間1 (0.5秒),canvas.Screen,12_10_0,2023-01-16T08:43:48.518Z,,,b,,,90,216.4110000000219,timeout,e.jpg,,,137061.90000000002,137061.5,136849.5,136850.40000000002,136467.463,136683.874,
注視(1秒),canvas.Screen,12_10_1,2023-01-16T08:43:49.214Z,,,b,,,90,699.127999999997,timeout,e.jpg,,,137757.7,137757.3,137061.5,137062,136683.874,137383.002,
空白時間2 (0.5秒),canvas.Screen,12_10_2,2023-01-16T08:43:49.420Z,,,b,,,90,199.71199999999953,timeout,e.jpg,,,137964,137963.7,137757.3,137758,137383.002,137582.714,
刺激提示,canvas.Screen,12_10_3,2023-01-16T08:43:50.061Z,,,b,true,b,90,1020.9860000000044,response,e.jpg,b,keypress(f),138605,138603.7,137963.7,137964.3,137582.714,138248.46,
フィードバック(0.5秒),canvas.Screen,12_10_4,2023-01-16T08:43:50.296Z,,,b,,,90,216.44200000001,timeout,e.jpg,,,138839.60000000003,138839.2,138231.888,138606.90000000002,138248.46,138464.902,
トライアル,flow.Sequence,12_10,2023-01-16T08:43:50.296Z,,,b,,,90,2371.737000000023,completion,e.jpg,,,138840,138839.2,136849.5,136850.40000000002,136467.463,138464.902,
空白時間1 (0.5秒),canvas.Screen,12_11_0,2023-01-16T08:43:50.505Z,,,d,,,225,216.39400000000023,timeout,eR.jpg,,,139049.3,139049,138839.2,138840.10000000003,138464.902,138681.296,
注視(1秒),canvas.Screen,12_11_1,2023-01-16T08:43:51.201Z,,,d,,,225,682.4159999999974,timeout,eR.jpg,,,139744.60000000003,139744.40000000002,139049,139049.5,138681.296,139363.712,
空白時間2 (0.5秒),canvas.Screen,12_11_2,2023-01-16T08:43:51.405Z,,,d,,,225,216.47000000000116,timeout,eR.jpg,,,139948.8,139948.5,139744.40000000002,139744.90000000002,139363.712,139580.182,
刺激提示,canvas.Screen,12_11_3,2023-01-16T08:43:52.032Z,,,d,true,d,225,995.2180000000226,response,eR.jpg,d,keypress(j),140576.2,140575.40000000002,139948.5,139949,139580.182,140245.936,
フィードバック(0.5秒),canvas.Screen,12_11_4,2023-01-16T08:43:52.293Z,,,d,,,225,216.41500000000815,timeout,eR.jpg,,,140836.7,140836.40000000002,140229.363,140603.8,140245.936,140462.351,
トライアル,flow.Sequence,12_11,2023-01-16T08:43:52.293Z,,,d,,,225,2371.4980000000214,completion,eR.jpg,,,140837.10000000003,140836.40000000002,138839.2,138840.10000000003,138464.902,140462.351,
空白時間1 (0.5秒),canvas.Screen,12_12_0,2023-01-16T08:43:52.504Z,,,d,,,0,216.42900000000373,timeout,eR.jpg,,,141047.60000000003,141045.3,140836.40000000002,140837.2,140462.351,140678.78,
注視(1秒),canvas.Screen,12_12_1,2023-01-16T08:43:53.206Z,,,d,,,0,699.1110000000044,timeout,eR.jpg,,,141750.2,141749.8,141045.3,141048.10000000003,140678.78,141377.891,
空白時間2 (0.5秒),canvas.Screen,12_12_2,2023-01-16T08:43:53.423Z,,,d,,,0,216.3969999999972,timeout,eR.jpg,,,141966.60000000003,141966,141749.8,141750.40000000002,141377.891,141594.288,
刺激提示,canvas.Screen,12_12_3,2023-01-16T08:43:53.970Z,,,d,true,d,0,918.2119999999995,response,eR.jpg,d,keypress(j),142513.40000000002,142512.5,141966,141967,141594.288,142160.166,
フィードバック(0.5秒),canvas.Screen,12_12_4,2023-01-16T08:43:54.202Z,,,d,,,0,216.44000000000233,timeout,eR.jpg,,,142746.3,142746,142143.603,142515.8,142160.166,142376.606,
トライアル,flow.Sequence,12_12,2023-01-16T08:43:54.203Z,,,d,,,0,2283.649000000005,completion,eR.jpg,,,142746.7,142746,140836.40000000002,140837.10000000003,140462.351,142376.606,
空白時間1 (0.5秒),canvas.Screen,12_13_0,2023-01-16T08:43:54.420Z,,,b,,,225,216.38099999999395,timeout,e.jpg,,,142964.3,142963.90000000002,142746,142746.8,142376.606,142592.987,
注視(1秒),canvas.Screen,12_13_1,2023-01-16T08:43:55.116Z,,,b,,,225,699.1229999999923,timeout,e.jpg,,,143659.60000000003,143659.10000000003,142963.90000000002,142964.5,142592.987,143292.11,
空白時間2 (0.5秒),canvas.Screen,12_13_2,2023-01-16T08:43:55.338Z,,,b,,,225,216.3650000000198,timeout,e.jpg,,,143881.5,143881,143659.10000000003,143659.7,143292.11,143508.475,
刺激提示,canvas.Screen,12_13_3,2023-01-16T08:43:56.142Z,,,b,true,b,225,1176.125000000029,response,e.jpg,b,keypress(f),144685.5,144684.60000000003,143881,143881.7,143508.475,144357.38,
フィードバック(0.5秒),canvas.Screen,12_13_4,2023-01-16T08:43:56.397Z,,,b,,,225,216.3969999999972,timeout,e.jpg,,,144941.3,144940.90000000002,144340.8,144709.7,144357.38,144573.777,
トライアル,flow.Sequence,12_13,2023-01-16T08:43:56.398Z,,,b,,,225,2564.2940000000235,completion,e.jpg,,,144941.7,144940.90000000002,142746,142746.8,142376.606,144573.777,
空白時間1 (0.5秒),canvas.Screen,12_14_0,2023-01-16T08:43:56.623Z,,,b,,,270,216.43299999999,timeout,e.jpg,,,145167.2,145158.40000000002,144940.90000000002,144941.90000000002,144573.777,144790.21,
注視(1秒),canvas.Screen,12_14_1,2023-01-16T08:43:57.318Z,,,b,,,270,699.1169999999984,timeout,e.jpg,,,145861.90000000002,145861.60000000003,145158.40000000002,145167.8,144790.21,145489.327,
空白時間2 (0.5秒),canvas.Screen,12_14_2,2023-01-16T08:43:57.536Z,,,b,,,270,216.38000000000466,timeout,e.jpg,,,146080.2,146079.8,145861.60000000003,145862,145489.327,145705.707,
刺激提示,canvas.Screen,12_14_3,2023-01-16T08:43:58.179Z,,,b,true,b,270,1016.39300000004,response,e.jpg,b,keypress(f),146723.10000000003,146722.10000000003,146079.8,146080.3,145705.707,146371.544,
フィードバック(0.5秒),canvas.Screen,12_14_4,2023-01-16T08:43:58.416Z,,,b,,,270,216.4210000000021,timeout,e.jpg,,,146960.10000000003,146959.7,146354.821,146724.40000000002,146371.544,146587.965,
トライアル,flow.Sequence,12_14,2023-01-16T08:43:58.417Z,,,b,,,270,2385.92300000001,completion,e.jpg,,,146960.40000000002,146959.7,144940.90000000002,144941.90000000002,144573.777,146587.965,
空白時間1 (0.5秒),canvas.Screen,12_15_0,2023-01-16T08:43:58.628Z,,,d,,,315,216.3740000000107,timeout,eR.jpg,,,147172.10000000003,147171.8,146959.7,146960.7,146587.965,146804.339,
注視(1秒),canvas.Screen,12_15_1,2023-01-16T08:43:59.331Z,,,d,,,315,699.0679999999993,timeout,eR.jpg,,,147875.10000000003,147874.8,147171.8,147172.2,146804.339,147503.407,
空白時間2 (0.5秒),canvas.Screen,12_15_2,2023-01-16T08:43:59.538Z,,,d,,,315,199.78800000000047,timeout,eR.jpg,,,148081.60000000003,148081.2,147874.8,147875.2,147503.407,147703.195,
刺激提示,canvas.Screen,12_15_3,2023-01-16T08:44:00.211Z,,,d,true,d,315,1050.804999999993,response,eR.jpg,d,keypress(j),148754.8,148754,148081.2,148081.90000000002,147703.195,148402.305,
フィードバック(0.5秒),canvas.Screen,12_15_4,2023-01-16T08:44:00.438Z,,,d,,,315,199.80400000000373,timeout,eR.jpg,,,148982.10000000003,148981.7,148385.692,148756.7,148402.305,148602.109,
トライアル,flow.Sequence,12_15,2023-01-16T08:44:00.439Z,,,d,,,315,2393.735000000015,completion,eR.jpg,,,148982.40000000002,148981.7,146959.7,146960.60000000003,146587.965,148602.109,
タスクのセット,flow.Loop,12,2023-01-16T08:44:00.439Z,,,,,,,32189.26800000001,completion,,,,148982.8,148981.7,117159.20000000001,117160.60000000003,116792.432,148602.109,
空白時間1 (0.5秒),canvas.Screen,13_0_0,2023-01-16T08:44:00.657Z,,,d,,,0,216.33199999999488,timeout,eR.jpg,,,149201.40000000002,149201,148981.7,148983.10000000003,148602.109,148818.441,
注視(1秒),canvas.Screen,13_0_1,2023-01-16T08:44:01.345Z,,,d,,,0,699.1160000000091,timeout,eR.jpg,,,149888.8,149888.60000000003,149201,149201.5,148818.441,149517.557,
空白時間2 (0.5秒),canvas.Screen,13_0_2,2023-01-16T08:44:01.556Z,,,d,,,0,199.7380000000121,timeout,eR.jpg,,,150100.10000000003,150099.8,149888.60000000003,149889,149517.557,149717.295,
刺激提示,canvas.Screen,13_0_3,2023-01-16T08:44:02.068Z,,,d,true,d,0,894.0049999999756,response,eR.jpg,d,keypress(j),150612.2,150611.3,150099.8,150100.3,149717.295,150249.921,
フィードバック(0.5秒),canvas.Screen,13_0_4,2023-01-16T08:44:02.296Z,,,d,,,0,216.45100000000093,timeout,eR.jpg,,,150839.5,150839.10000000003,150233.274,150615,150249.921,150466.372,
トライアル,flow.Sequence,13_0,2023-01-16T08:44:02.296Z,,,d,,,0,2236.991000000038,completion,eR.jpg,,,150839.90000000002,150839.10000000003,148981.7,148983,148602.109,150466.372,
空白時間1 (0.5秒),canvas.Screen,13_1_0,2023-01-16T08:44:02.509Z,,,d,,,90,216.33600000001024,timeout,eR.jpg,,,151052.40000000002,151052.10000000003,150839.10000000003,150840.10000000003,150466.372,150682.708,
注視(1秒),canvas.Screen,13_1_1,2023-01-16T08:44:03.215Z,,,d,,,90,699.1409999999742,timeout,eR.jpg,,,151759,151758.7,151052.10000000003,151052.7,150682.708,151381.849,
空白時間2 (0.5秒),canvas.Screen,13_1_2,2023-01-16T08:44:03.424Z,,,d,,,90,216.35500000001048,timeout,eR.jpg,,,151968.2,151967.8,151758.7,151759.2,151381.849,151598.204,
刺激提示,canvas.Screen,13_1_3,2023-01-16T08:44:04.081Z,,,d,true,d,90,1025.1960000000254,response,eR.jpg,d,keypress(j),152625.3,152623.40000000002,151967.8,151968.40000000002,151598.204,152264.02,
フィードバック(0.5秒),canvas.Screen,13_1_4,2023-01-16T08:44:04.306Z,,,d,,,90,216.43000000002212,timeout,eR.jpg,,,152850.10000000003,152849.8,152247.413,152627.7,152264.02,152480.45,
トライアル,flow.Sequence,13_1,2023-01-16T08:44:04.307Z,,,d,,,90,2383.4279999999853,completion,eR.jpg,,,152850.5,152849.8,150839.10000000003,150840,150466.372,152480.45,
空白時間1 (0.5秒),canvas.Screen,13_2_0,2023-01-16T08:44:04.529Z,,,b,,,225,216.40399999998044,timeout,e.jpg,,,153073.10000000003,153072.7,152849.8,152850.60000000003,152480.45,152696.854,
注視(1秒),canvas.Screen,13_2_1,2023-01-16T08:44:05.231Z,,,b,,,225,699.0869999999995,timeout,e.jpg,,,153774.60000000003,153774.2,153072.7,153073.40000000002,152696.854,153395.941,
空白時間2 (0.5秒),canvas.Screen,13_2_2,2023-01-16T08:44:05.436Z,,,b,,,225,216.45100000000093,timeout,e.jpg,,,153979.8,153979.40000000002,153774.2,153774.90000000002,153395.941,153612.392,
刺激提示,canvas.Screen,13_2_3,2023-01-16T08:44:06.143Z,,,b,true,b,225,1073.6080000000075,response,e.jpg,b,keypress(f),154687,154686,153979.40000000002,153980,153612.392,154328.08,
フィードバック(0.5秒),canvas.Screen,13_2_4,2023-01-16T08:44:06.378Z,,,b,,,225,216.41400000001886,timeout,e.jpg,,,154921.8,154921.40000000002,154311.482,154689.7,154328.08,154544.494,
トライアル,flow.Sequence,13_2,2023-01-16T08:44:06.378Z,,,b,,,225,2440.9500000000116,completion,e.jpg,,,154922.2,154921.40000000002,152849.8,152850.60000000003,152480.45,154544.494,
空白時間1 (0.5秒),canvas.Screen,13_3_0,2023-01-16T08:44:06.588Z,,,d,,,45,216.42199999999139,timeout,eR.jpg,,,155132,155131.7,154921.40000000002,154922.5,154544.494,154760.916,
注視(1秒),canvas.Screen,13_3_1,2023-01-16T08:44:07.297Z,,,d,,,45,699.0929999999935,timeout,eR.jpg,,,155841,155840.60000000003,155131.7,155132.2,154760.916,155460.009,
空白時間2 (0.5秒),canvas.Screen,13_3_2,2023-01-16T08:44:07.503Z,,,d,,,45,216.45100000000093,timeout,eR.jpg,,,156047.10000000003,156046.7,155840.60000000003,155841.2,155460.009,155676.46,
刺激提示,canvas.Screen,13_3_3,2023-01-16T08:44:08.060Z,,,d,true,d,45,926.3399999999965,response,eR.jpg,d,keypress(j),156603.5,156602.8,156046.7,156047.3,155676.46,156258.949,
フィードバック(0.5秒),canvas.Screen,13_3_4,2023-01-16T08:44:08.300Z,,,d,,,45,216.41500000000815,timeout,eR.jpg,,,156844.3,156843.8,156225.729,156605.3,156258.949,156475.364,
トライアル,flow.Sequence,13_3,2023-01-16T08:44:08.301Z,,,d,,,45,2299.3059999999823,completion,eR.jpg,,,156845.3,156843.8,154921.40000000002,154922.40000000002,154544.494,156475.364,
空白時間1 (0.5秒),canvas.Screen,13_4_0,2023-01-16T08:44:08.518Z,,,d,,,270,216.3869999999879,timeout,eR.jpg,,,157062.40000000002,157061.90000000002,156843.8,156845.7,156475.364,156691.751,
注視(1秒),canvas.Screen,13_4_1,2023-01-16T08:44:09.218Z,,,d,,,270,699.1140000000014,timeout,eR.jpg,,,157762.10000000003,157761.8,157061.90000000002,157062.90000000002,156691.751,157390.865,
空白時間2 (0.5秒),canvas.Screen,13_4_2,2023-01-16T08:44:09.433Z,,,d,,,270,216.39500000001863,timeout,eR.jpg,,,157976.5,157976.3,157761.8,157762.3,157390.865,157607.26,
刺激提示,canvas.Screen,13_4_3,2023-01-16T08:44:10.058Z,,,d,true,d,270,992.9400000000023,response,eR.jpg,d,keypress(j),158601.90000000002,158600.2,157976.3,157976.8,157607.26,158239.79,
フィードバック(0.5秒),canvas.Screen,13_4_4,2023-01-16T08:44:10.278Z,,,d,,,270,199.7719999999972,timeout,eR.jpg,,,158821.8,158821.60000000003,158223.173,158604.2,158239.79,158439.562,
トライアル,flow.Sequence,13_4,2023-01-16T08:44:10.278Z,,,d,,,270,2346.2360000000335,completion,eR.jpg,,,158822.2,158821.60000000003,156843.8,156845.5,156475.364,158439.562,
空白時間1 (0.5秒),canvas.Screen,13_5_0,2023-01-16T08:44:10.498Z,,,b,,,135,233.00500000000466,timeout,e.jpg,,,159042.40000000002,159042.2,158821.60000000003,158822.40000000002,158439.562,158672.567,
注視(1秒),canvas.Screen,13_5_1,2023-01-16T08:44:11.198Z,,,b,,,135,699.1239999999816,timeout,e.jpg,,,159741.60000000003,159741.3,159042.2,159042.60000000003,158672.567,159371.691,
空白時間2 (0.5秒),canvas.Screen,13_5_2,2023-01-16T08:44:11.417Z,,,b,,,135,216.42500000001746,timeout,e.jpg,,,159960.90000000002,159960.5,159741.3,159741.8,159371.691,159588.116,
刺激提示,canvas.Screen,13_5_3,2023-01-16T08:44:12.119Z,,,b,true,b,135,1073.883999999991,response,e.jpg,b,keypress(f),160663,160662,159960.5,159961,159588.116,160337.104,
フィードバック(0.5秒),canvas.Screen,13_5_4,2023-01-16T08:44:12.370Z,,,b,,,135,199.7369999999937,timeout,e.jpg,,,160914.2,160913.90000000002,160320.573,160689.2,160337.104,160536.841,
トライアル,flow.Sequence,13_5,2023-01-16T08:44:12.371Z,,,b,,,135,2474.338000000018,completion,e.jpg,,,160914.5,160913.90000000002,158821.60000000003,158822.3,158439.562,160536.841,
空白時間1 (0.5秒),canvas.Screen,13_6_0,2023-01-16T08:44:12.584Z,,,b,,,90,216.42700000002515,timeout,e.jpg,,,161127.8,161127.40000000002,160913.90000000002,160914.7,160536.841,160753.268,
注視(1秒),canvas.Screen,13_6_1,2023-01-16T08:44:13.277Z,,,b,,,90,699.1520000000019,timeout,e.jpg,,,161821.10000000003,161820.90000000002,161127.40000000002,161128,160753.268,161452.42,
空白時間2 (0.5秒),canvas.Screen,13_6_2,2023-01-16T08:44:13.495Z,,,b,,,90,216.37199999997392,timeout,e.jpg,,,162039.3,162039.10000000003,161820.90000000002,161821.3,161452.42,161668.792,
刺激提示,canvas.Screen,13_6_3,2023-01-16T08:44:14.061Z,,,b,true,b,90,935.0080000000016,response,e.jpg,b,keypress(f),162604.7,162603.8,162039.10000000003,162039.5,161668.792,162267.988,
フィードバック(0.5秒),canvas.Screen,13_6_4,2023-01-16T08:44:14.316Z,,,b,,,90,216.40699999997742,timeout,e.jpg,,,162860.2,162859.8,162234.7,162607.60000000003,162267.988,162484.395,
トライアル,flow.Sequence,13_6,2023-01-16T08:44:14.317Z,,,b,,,90,2322.9590000000026,completion,e.jpg,,,162860.7,162859.8,160913.90000000002,160914.7,160536.841,162484.395,
空白時間1 (0.5秒),canvas.Screen,13_7_0,2023-01-16T08:44:14.521Z,,,d,,,315,199.7860000000219,timeout,eR.jpg,,,163064.8,163064.5,162859.8,162861,162484.395,162684.181,
注視(1秒),canvas.Screen,13_7_1,2023-01-16T08:44:15.210Z,,,d,,,315,699.0829999999842,timeout,eR.jpg,,,163754,163753.60000000003,163064.5,163065.10000000003,162684.181,163383.264,
空白時間2 (0.5秒),canvas.Screen,13_7_2,2023-01-16T08:44:15.420Z,,,d,,,315,199.75500000000466,timeout,eR.jpg,,,163964.10000000003,163963.10000000003,163753.60000000003,163754.2,163383.264,163583.019,
刺激提示,canvas.Screen,13_7_3,2023-01-16T08:44:16.173Z,,,d,true,d,315,1132.9809999999998,response,eR.jpg,d,keypress(j),164717.10000000003,164716,163963.10000000003,163964.5,163583.019,164365.324,
フィードバック(0.5秒),canvas.Screen,13_7_4,2023-01-16T08:44:16.406Z,,,d,,,315,216.4440000000177,timeout,eR.jpg,,,164950,164949.60000000003,164348.676,164718.7,164365.324,164581.768,
トライアル,flow.Sequence,13_7,2023-01-16T08:44:16.407Z,,,d,,,315,2465.2050000000454,completion,eR.jpg,,,164950.40000000002,164949.60000000003,162859.8,162860.90000000002,162484.395,164581.768,
空白時間1 (0.5秒),canvas.Screen,13_8_0,2023-01-16T08:44:16.618Z,,,d,,,225,199.72000000000116,timeout,eR.jpg,,,165161.7,165161.40000000002,164949.60000000003,164950.60000000003,164581.768,164781.488,
注視(1秒),canvas.Screen,13_8_1,2023-01-16T08:44:17.311Z,,,d,,,225,699.0779999999795,timeout,eR.jpg,,,165855.10000000003,165854.7,165161.40000000002,165161.90000000002,164781.488,165480.566,
空白時間2 (0.5秒),canvas.Screen,13_8_2,2023-01-16T08:44:17.529Z,,,d,,,225,216.47100000001956,timeout,eR.jpg,,,166072.5,166072.10000000003,165854.7,165855.3,165480.566,165697.037,
刺激提示,canvas.Screen,13_8_3,2023-01-16T08:44:18.746Z,,,d,true,d,225,1591.7629999999772,response,eR.jpg,d,keypress(j),167289.8,167288.8,166072.10000000003,166072.8,165697.037,166945.393,
フィードバック(0.5秒),canvas.Screen,13_8_4,2023-01-16T08:44:18.985Z,,,d,,,225,216.41099999999278,timeout,eR.jpg,,,167528.90000000002,167528.5,166928.725,167308.90000000002,166945.393,167161.804,
トライアル,flow.Sequence,13_8,2023-01-16T08:44:18.985Z,,,d,,,225,2946.731999999989,completion,eR.jpg,,,167529.3,167528.5,164949.60000000003,164950.60000000003,164581.768,167161.804,
空白時間1 (0.5秒),canvas.Screen,13_9_0,2023-01-16T08:44:19.208Z,,,b,,,0,216.41399999998976,timeout,e.jpg,,,167752.3,167752,167528.5,167529.60000000003,167161.804,167378.218,
注視(1秒),canvas.Screen,13_9_1,2023-01-16T08:44:19.905Z,,,b,,,0,699.1160000000091,timeout,e.jpg,,,168449.2,168449,167752,167752.5,167378.218,168077.334,
空白時間2 (0.5秒),canvas.Screen,13_9_2,2023-01-16T08:44:20.111Z,,,b,,,0,199.7060000000056,timeout,e.jpg,,,168654.7,168654.40000000002,168449,168449.40000000002,168077.334,168277.04,
刺激提示,canvas.Screen,13_9_3,2023-01-16T08:44:20.662Z,,,b,true,b,0,928.2599999999802,response,e.jpg,b,keypress(f),169206,169205.3,168654.40000000002,168654.90000000002,168277.04,168842.978,
フィードバック(0.5秒),canvas.Screen,13_9_4,2023-01-16T08:44:20.888Z,,,b,,,0,216.4320000000007,timeout,e.jpg,,,169431.7,169431.3,168826.552,169207.40000000002,168842.978,169059.41,
トライアル,flow.Sequence,13_9,2023-01-16T08:44:20.888Z,,,b,,,0,2269.4959999999846,completion,e.jpg,,,169432,169431.3,167528.5,167529.5,167161.804,169059.41,
空白時間1 (0.5秒),canvas.Screen,13_10_0,2023-01-16T08:44:21.105Z,,,b,,,315,216.36600000000908,timeout,e.jpg,,,169648.7,169648.40000000002,169431.3,169432.3,169059.41,169275.776,
注視(1秒),canvas.Screen,13_10_1,2023-01-16T08:44:21.802Z,,,b,,,315,699.0959999999905,timeout,e.jpg,,,170346.3,170346.10000000003,169648.40000000002,169649.10000000003,169275.776,169974.872,
空白時間2 (0.5秒),canvas.Screen,13_10_2,2023-01-16T08:44:22.013Z,,,b,,,315,199.78800000000047,timeout,e.jpg,,,170556.90000000002,170556.7,170346.10000000003,170346.5,169974.872,170174.66,
刺激提示,canvas.Screen,13_10_3,2023-01-16T08:44:22.545Z,,,b,true,b,315,912.7400000000198,response,e.jpg,b,keypress(f),171088.5,171087.40000000002,170556.7,170557.10000000003,170174.66,170740.574,
フィードバック(0.5秒),canvas.Screen,13_10_4,2023-01-16T08:44:22.803Z,,,b,,,315,233.12700000000768,timeout,e.jpg,,,171347.3,171346.90000000002,170723.984,171091.7,170740.574,170973.701,
トライアル,flow.Sequence,13_10,2023-01-16T08:44:22.804Z,,,b,,,315,2287.49000000002,completion,e.jpg,,,171347.8,171346.90000000002,169431.3,169432.2,169059.41,170973.701,
空白時間1 (0.5秒),canvas.Screen,13_11_0,2023-01-16T08:44:23.017Z,,,d,,,180,216.39100000000326,timeout,eR.jpg,,,171560.7,171560.40000000002,171346.90000000002,171347.90000000002,170973.701,171190.092,
注視(1秒),canvas.Screen,13_11_1,2023-01-16T08:44:23.718Z,,,d,,,180,699.0570000000007,timeout,eR.jpg,,,172262.3,172262,171560.40000000002,171561,171190.092,171889.149,
空白時間2 (0.5秒),canvas.Screen,13_11_2,2023-01-16T08:44:23.930Z,,,d,,,180,216.43400000000838,timeout,eR.jpg,,,172473.8,172473.60000000003,172262,172262.40000000002,171889.149,172105.583,
刺激提示,canvas.Screen,13_11_3,2023-01-16T08:44:24.707Z,,,d,true,d,180,1144.0170000000217,response,eR.jpg,d,keypress(j),173250.5,173249.60000000003,172473.60000000003,172474,172105.583,172887.851,
フィードバック(0.5秒),canvas.Screen,13_11_4,2023-01-16T08:44:24.927Z,,,d,,,180,199.8310000000056,timeout,eR.jpg,,,173470.40000000002,173470,172871.245,173253.10000000003,172887.851,173087.682,
トライアル,flow.Sequence,13_11,2023-01-16T08:44:24.927Z,,,d,,,180,2496.298999999999,completion,eR.jpg,,,173470.8,173470,171346.90000000002,171347.90000000002,170973.701,173087.682,
空白時間1 (0.5秒),canvas.Screen,13_12_0,2023-01-16T08:44:25.143Z,,,b,,,45,216.38099999999395,timeout,e.jpg,,,173686.5,173686.2,173470,173471,173087.682,173304.063,
注視(1秒),canvas.Screen,13_12_1,2023-01-16T08:44:25.827Z,,,b,,,45,699.064000000013,timeout,e.jpg,,,174371.3,174370.90000000002,173686.2,173686.7,173304.063,174003.127,
空白時間2 (0.5秒),canvas.Screen,13_12_2,2023-01-16T08:44:26.047Z,,,b,,,45,216.44099999999162,timeout,e.jpg,,,174591.2,174591,174370.90000000002,174371.5,174003.127,174219.568,
刺激提示,canvas.Screen,13_12_3,2023-01-16T08:44:26.543Z,,,b,true,b,45,866.832000000024,response,e.jpg,b,keypress(f),175087.40000000002,175086.40000000002,174591,174591.5,174219.568,174752.142,
フィードバック(0.5秒),canvas.Screen,13_12_4,2023-01-16T08:44:26.791Z,,,b,,,45,199.76399999999558,timeout,e.jpg,,,175334.5,175334,174735.538,175111.3,174752.142,174951.906,
トライアル,flow.Sequence,13_12,2023-01-16T08:44:26.791Z,,,b,,,45,2246.3179999999993,completion,e.jpg,,,175334.90000000002,175334,173470,173471,173087.682,174951.906,
空白時間1 (0.5秒),canvas.Screen,13_13_0,2023-01-16T08:44:27.011Z,,,d,,,135,233.08699999999953,timeout,eR.jpg,,,175555.2,175554.8,175334,175335,174951.906,175184.993,
注視(1秒),canvas.Screen,13_13_1,2023-01-16T08:44:27.713Z,,,d,,,135,699.0990000000165,timeout,eR.jpg,,,176256.40000000002,176256.10000000003,175554.8,175565.2,175184.993,175884.092,
空白時間2 (0.5秒),canvas.Screen,13_13_2,2023-01-16T08:44:27.925Z,,,d,,,135,216.41699999998673,timeout,eR.jpg,,,176468.7,176468.5,176256.10000000003,176256.7,175884.092,176100.509,
刺激提示,canvas.Screen,13_13_3,2023-01-16T08:44:28.621Z,,,d,true,d,135,1062.7909999999974,response,eR.jpg,d,keypress(j),177164.5,177163.3,176468.5,176469,176100.509,176816.206,
フィードバック(0.5秒),canvas.Screen,13_13_4,2023-01-16T08:44:28.860Z,,,d,,,135,216.44999999998254,timeout,eR.jpg,,,177403.60000000003,177403.3,176799.616,177167.7,176816.206,177032.656,
トライアル,flow.Sequence,13_13,2023-01-16T08:44:28.860Z,,,d,,,135,2451.3940000000002,completion,eR.jpg,,,177404,177403.3,175334,175334.90000000002,174951.906,177032.656,
空白時間1 (0.5秒),canvas.Screen,13_14_0,2023-01-16T08:44:29.077Z,,,b,,,180,216.36900000000605,timeout,e.jpg,,,177620.90000000002,177620.5,177403.3,177404.2,177032.656,177249.025,
注視(1秒),canvas.Screen,13_14_1,2023-01-16T08:44:29.784Z,,,b,,,180,699.1070000000182,timeout,e.jpg,,,178328.2,178327.90000000002,177620.5,177621.10000000003,177249.025,177948.132,
空白時間2 (0.5秒),canvas.Screen,13_14_2,2023-01-16T08:44:29.989Z,,,b,,,180,216.38300000000163,timeout,e.jpg,,,178532.7,178532.5,178327.90000000002,178328.5,177948.132,178164.515,
刺激提示,canvas.Screen,13_14_3,2023-01-16T08:44:30.792Z,,,b,true,b,180,1170.8850000000093,response,e.jpg,b,keypress(f),179336.10000000003,179335.40000000002,178532.5,178532.90000000002,178164.515,178996.759,
フィードバック(0.5秒),canvas.Screen,13_14_4,2023-01-16T08:44:31.040Z,,,b,,,180,216.42500000001746,timeout,e.jpg,,,179583.90000000002,179583.5,178980.159,179361.90000000002,178996.759,179213.184,
トライアル,flow.Sequence,13_14,2023-01-16T08:44:31.040Z,,,b,,,180,2550.844000000012,completion,e.jpg,,,179584.2,179583.5,177403.3,177404.10000000003,177032.656,179213.184,
空白時間1 (0.5秒),canvas.Screen,13_15_0,2023-01-16T08:44:31.253Z,,,b,,,270,233.08400000000256,timeout,e.jpg,,,179796.40000000002,179796.10000000003,179583.5,179584.40000000002,179213.184,179446.268,
注視(1秒),canvas.Screen,13_15_1,2023-01-16T08:44:31.969Z,,,b,,,270,699.0779999999795,timeout,e.jpg,,,180513.3,180512.90000000002,179796.10000000003,179796.60000000003,179446.268,180145.346,
空白時間2 (0.5秒),canvas.Screen,13_15_2,2023-01-16T08:44:32.193Z,,,b,,,270,216.34799999999814,timeout,e.jpg,,,180737.2,180736.90000000002,180512.90000000002,180513.40000000002,180145.346,180361.694,
刺激提示,canvas.Screen,13_15_3,2023-01-16T08:44:32.790Z,,,b,true,b,270,970.6059999999998,response,e.jpg,b,keypress(f),181333.8,181332.3,180736.90000000002,180737.40000000002,180361.694,180994.223,
フィードバック(0.5秒),canvas.Screen,13_15_4,2023-01-16T08:44:33.039Z,,,b,,,270,216.47099999999045,timeout,e.jpg,,,181582.8,181582.3,180977.664,181358.60000000003,180994.223,181210.694,
トライアル,flow.Sequence,13_15,2023-01-16T08:44:33.039Z,,,b,,,270,2369.11599999998,completion,e.jpg,,,181583.10000000003,181582.3,179583.5,179584.40000000002,179213.184,181210.694,
タスクのセット,flow.Loop,13,2023-01-16T08:44:33.039Z,,,,,,,32980.19099999999,completion,,,,181583.3,181582.3,148981.7,148982.90000000002,148602.109,181210.694,
休憩,canvas.Screen,14,2023-01-16T08:45:32.716Z,,,,,,,59724.21900000001,timeout,,,,241260,241259.60000000003,181582.3,181583.40000000002,181210.694,240934.913,
休憩終了,html.Page,15,2023-01-16T08:45:38.040Z,,,,,,,5649.0869999999995,form submission,,,,246584.2,246584,241259.60000000003,241260.40000000002,240934.913,246211.499,
イントロ2,html.Page,16,2023-01-16T08:45:39.678Z,,,,,,,2010.201000000001,form submission,,,,248222,248221.7,246194.916,246584.40000000002,246211.499,247859.388,
イントロ3,html.Page,17,2023-01-16T08:45:41.390Z,,,,,,,2074.411999999982,form submission,,,,249933.90000000002,249933.8,247842.811,248222.2,247859.388,249573.882,
イントロ4,html.Page,18,2023-01-16T08:45:43.006Z,,,,,,,1975.7180000000226,form submission,,,,251549.90000000002,251549.60000000003,249557.302,249934,249573.882,251188.54,
イントロ5,html.Page,19,2023-01-16T08:45:43.638Z,,,,,,,993.2599999999802,form submission,,,,252182,252181.8,251171.913,251550.2,251188.54,251821.053,
できるだけ早く正確に,canvas.Screen,20,2023-01-16T08:45:44.347Z,,,,,,,699.1609999999928,timeout,,,,252890.60000000003,252890.3,251804.451,252182.2,251821.053,252520.214,
空白時間1 (0.5秒),canvas.Screen,21_0_0,2023-01-16T08:45:44.566Z,,,d,,,225,216.43499999999767,timeout,2R.jpg,,,253110.10000000003,253109.7,252890.3,252890.90000000002,252520.214,252736.649,
注視(1秒),canvas.Screen,21_0_1,2023-01-16T08:45:45.265Z,,,d,,,225,699.0329999999958,timeout,2R.jpg,,,253809.40000000002,253809,253109.7,253110.5,252736.649,253435.682,
空白時間2 (0.5秒),canvas.Screen,21_0_2,2023-01-16T08:45:45.474Z,,,d,,,225,199.77700000000186,timeout,2R.jpg,,,254018,254017.8,253809,253809.60000000003,253435.682,253635.459,
刺激提示(練習),canvas.Screen,21_0_3,2023-01-16T08:45:46.223Z,,,d,true,d,225,1130.6410000000324,response,2R.jpg,d,keypress(j),254766.8,254766.10000000003,254017.8,254018.2,253635.459,254417.819,
フィードバック(0.5秒),canvas.Screen,21_0_4,2023-01-16T08:45:46.467Z,,,d,,,225,216.35900000002584,timeout,2R.jpg,,,255011.2,255010.90000000002,254384.515,254791.90000000002,254417.819,254634.178,
トライアル,flow.Sequence,21_0,2023-01-16T08:45:46.468Z,,,d,,,225,2490.686000000016,completion,2R.jpg,,,255011.60000000003,255010.90000000002,252890.3,252890.8,252520.214,254634.178,
空白時間1 (0.5秒),canvas.Screen,21_1_0,2023-01-16T08:45:46.682Z,,,d,,,90,216.420999999973,timeout,2R.jpg,,,255225.90000000002,255225.7,255010.90000000002,255011.7,254634.178,254850.599,
注視(1秒),canvas.Screen,21_1_1,2023-01-16T08:45:47.377Z,,,d,,,90,699.0950000000012,timeout,2R.jpg,,,255920.8,255920.40000000002,255225.7,255226.10000000003,254850.599,255549.694,
空白時間2 (0.5秒),canvas.Screen,21_1_2,2023-01-16T08:45:47.593Z,,,d,,,90,216.37900000001537,timeout,2R.jpg,,,256137.2,256136.8,255920.40000000002,255920.90000000002,255549.694,255766.073,
刺激提示(練習),canvas.Screen,21_1_3,2023-01-16T08:45:48.090Z,,,d,true,d,90,867.027000000031,response,2R.jpg,d,keypress(j),256633.90000000002,256633.10000000003,256136.8,256137.40000000002,255766.073,256298.682,
