sender,sender_type,sender_id,timestamp,meta,,answer,correct,correctResponse,deg,duration,ended_on,image,response,response_action,time_commit,time_end,time_render,time_run,time_show,time_switch,url
イントロ1,html.Page,0,2023-01-08T09:42:45.551Z,"{""labjs_version"":""20.2.4"",""labjs_build"":{""flavor"":""development"",""commit"":""f5b4a49f956347addd546a832a3327688c2c0fef""},""location"":""https://labjs.felixhenninger.com/api/labjs_preview/index.html"",""userAgent"":""Mozilla/5.0 (Macintosh; Intel Mac OS X 10_15_7) AppleWebKit/537.36 (KHTML, like Gecko) Chrome/108.0.0.0 Safari/537.36"",""platform"":""MacIntel"",""language"":""ja"",""locale"":""ja"",""timeZone"":""Asia/Tokyo"",""timezoneOffset"":-540,""screen_width"":1440,""screen_height"":900,""scroll_width"":1068,""scroll_height"":731,""window_innerWidth"":1068,""window_innerHeight"":779,""devicePixelRatio"":2}",,,,,,23057.555,form submission,,,,25095.600000000093,25095,1754.123,2282.70000000007,2037.445,24844.337,{}
イントロ2,html.Page,1,2023-01-08T09:43:01.901Z,,,,,,,16600.763000000094,form submission,,,,41445.40000000002,41445.10000000009,24827.671,25096.20000000007,24844.337,41210.349,
イントロ3,html.Page,2,2023-01-08T09:43:14.284Z,,,,,,,12616.851000000068,form submission,,,,53827.5,53827.20000000007,41193.683,41445.5,41210.349,53593.192,
イントロ4,html.Page,3,2023-01-08T09:43:53.522Z,,,,,,,39471.20800000014,form submission,,,,93064.6000000001,93064.40000000014,53576.526,53827.60000000009,53593.192,92818.91,
イントロ5,html.Page,4,2023-01-08T09:43:55.758Z,,,,,,,2482.0899999999965,form submission,,,,95301.1000000001,95301,92802.244,93065.1000000001,92818.91,95075.638,
できるだけ早く正確に,canvas.Screen,5,2023-01-08T09:43:56.536Z,,,,,,,749.9699999999866,timeout,,,,96078.6000000001,96078,95042.306,95301.19999999995,95075.638,95825.608,
空白時間1 (0.5秒),canvas.Screen,6_0_0,2023-01-08T09:43:56.796Z,,,d,,,135,249.99000000000524,timeout,eR.jpg,,,96339.1000000001,96338.80000000005,96078,96078.90000000014,95825.608,96075.598,
注視(1秒),canvas.Screen,6_0_1,2023-01-08T09:43:57.533Z,,,d,,,135,749.9700000000012,timeout,eR.jpg,,,97075.5,97075,96338.80000000005,96339.30000000005,96075.598,96825.568,
空白時間2 (0.5秒),canvas.Screen,6_0_2,2023-01-08T09:43:57.799Z,,,d,,,135,266.6560000000027,timeout,eR.jpg,,,97341.90000000014,97341.5,97075,97075.80000000005,96825.568,97092.224,
刺激提示(練習),canvas.Screen,6_0_3,2023-01-08T09:43:59.679Z,,,d,true,d,135,2124.6760000001377,response,eR.jpg,d,keypress(j),99222,99216.90000000014,97341.5,97342.19999999995,97092.224,98975.482,
フィードバック(0.5秒),canvas.Screen,6_0_4,2023-01-08T09:43:59.941Z,,,d,,,135,249.9899999999907,timeout,eR.jpg,,,99483.90000000014,99483.40000000014,98958.816,99223.30000000005,98975.482,99225.472,
トライアル,flow.Sequence,6_0,2023-01-08T09:43:59.942Z,,,d,,,135,3657.792000000147,completion,eR.jpg,,,99484.5,99483.40000000014,96078,96078.80000000005,95825.608,99225.472,
空白時間1 (0.5秒),canvas.Screen,6_1_0,2023-01-08T09:44:00.189Z,,,d,,,315,283.3220000000001,timeout,eR.jpg,,,99731.6000000001,99731.40000000014,99483.40000000014,99484.6000000001,99225.472,99508.794,
注視(1秒),canvas.Screen,6_1_1,2023-01-08T09:44:00.969Z,,,d,,,315,749.9700000000012,timeout,eR.jpg,,,100511.80000000005,100511.30000000005,99731.40000000014,99731.69999999995,99508.794,100258.764,
空白時間2 (0.5秒),canvas.Screen,6_1_2,2023-01-08T09:44:01.224Z,,,d,,,315,249.99000000000524,timeout,eR.jpg,,,100766.69999999995,100766.30000000005,100511.30000000005,100512.1000000001,100258.764,100508.754,
刺激提示(練習),canvas.Screen,6_1_3,2023-01-08T09:44:03.340Z,,,d,false,d,315,2370.146000000139,response,eR.jpg,b,keypress(f),102882.90000000014,102878.90000000014,100766.30000000005,100766.80000000005,100508.754,102658.668,
フィードバック(0.5秒),canvas.Screen,6_1_4,2023-01-08T09:44:03.623Z,,,d,,,315,249.9899999999907,timeout,eR.jpg,,,103165.80000000005,103165.5,102642.002,102884.6000000001,102658.668,102908.658,
トライアル,flow.Sequence,6_1,2023-01-08T09:44:03.623Z,,,d,,,315,3940.0280000000057,completion,eR.jpg,,,103166,103165.5,99483.40000000014,99484.6000000001,99225.472,102908.658,
空白時間1 (0.5秒),canvas.Screen,6_2_0,2023-01-08T09:44:03.871Z,,,b,,,270,239.97299999999814,timeout,e.jpg,,,103414.30000000005,103413.90000000014,103165.5,103166.1000000001,102908.658,103148.631,
注視(1秒),canvas.Screen,6_2_1,2023-01-08T09:44:04.609Z,,,b,,,270,749.9700000000012,timeout,e.jpg,,,104151.40000000014,104151.1000000001,103413.90000000014,103414.5,103148.631,103898.601,
空白時間2 (0.5秒),canvas.Screen,6_2_2,2023-01-08T09:44:04.864Z,,,b,,,270,249.99000000000524,timeout,e.jpg,,,104406.6000000001,104406.19999999995,104151.1000000001,104151.5,103898.601,104148.591,
刺激提示(練習),canvas.Screen,6_2_3,2023-01-08T09:44:06.506Z,,,b,true,b,270,1896.3090000001393,response,e.jpg,b,keypress(f),106048.90000000014,106044.90000000014,104406.19999999995,104406.69999999995,104148.591,105831.857,
フィードバック(0.5秒),canvas.Screen,6_2_4,2023-01-08T09:44:06.791Z,,,b,,,270,249.9899999999907,timeout,e.jpg,,,106333.69999999995,106333.40000000014,105815.191,106062.69999999995,105831.857,106081.847,
トライアル,flow.Sequence,6_2,2023-01-08T09:44:06.791Z,,,b,,,270,3424.742000000144,completion,e.jpg,,,106334,106333.40000000014,103165.5,103166.1000000001,102908.658,106081.847,
空白時間1 (0.5秒),canvas.Screen,6_3_0,2023-01-08T09:44:07.046Z,,,b,,,180,249.99000000000524,timeout,e.jpg,,,106589,106588.69999999995,106333.40000000014,106334.19999999995,106081.847,106331.837,
注視(1秒),canvas.Screen,6_3_1,2023-01-08T09:44:07.789Z,,,b,,,180,749.9700000000012,timeout,e.jpg,,,107332,107331.90000000014,106588.69999999995,106589.30000000005,106331.837,107081.807,
空白時間2 (0.5秒),canvas.Screen,6_3_2,2023-01-08T09:44:08.056Z,,,b,,,180,266.6560000000027,timeout,e.jpg,,,107599,107598.80000000005,107331.90000000014,107332.19999999995,107081.807,107348.463,
刺激提示(練習),canvas.Screen,6_3_3,2023-01-08T09:44:09.237Z,,,b,true,b,180,1427.3370000000432,response,e.jpg,b,keypress(f),108779.30000000005,108775.80000000005,107598.80000000005,107599.30000000005,107348.463,108531.749,
フィードバック(0.5秒),canvas.Screen,6_3_4,2023-01-08T09:44:09.496Z,,,b,,,180,249.99000000000524,timeout,e.jpg,,,109038.6000000001,109038.30000000005,108515.083,108780.19999999995,108531.749,108781.739,
トライアル,flow.Sequence,6_3,2023-01-08T09:44:09.496Z,,,b,,,180,2956.4530000000523,completion,e.jpg,,,109038.80000000005,109038.30000000005,106333.40000000014,106334.1000000001,106081.847,108781.739,
練習試行(e),flow.Loop,6,2023-01-08T09:44:09.496Z,,,,,,,13212.692000000054,completion,,,,109038.90000000014,109038.30000000005,96078,96078.80000000005,95825.608,108781.739,
イントロ6,html.Page,7,2023-01-08T09:44:11.960Z,,,,,,,2721.2609999999986,form submission,,,,111503.1000000001,111503,109038.30000000005,109039,108781.739,111248.307,
できるだけ早く正確に,canvas.Screen,8,2023-01-08T09:44:12.704Z,,,,,,,733.3040000000037,timeout,,,,112246.30000000005,112246.1000000001,111231.641,111503.19999999995,111248.307,111981.611,
空白時間1 (0.5秒),canvas.Screen,9_0_0,2023-01-08T09:44:12.951Z,,,b,,,270,249.9899999999907,timeout,e.jpg,,,112493.19999999995,112493,112246.1000000001,112246.5,111981.611,112231.601,
注視(1秒),canvas.Screen,9_0_1,2023-01-08T09:44:13.694Z,,,b,,,270,749.9700000000012,timeout,e.jpg,,,113236.40000000014,113236,112493,112493.30000000005,112231.601,112981.571,
空白時間2 (0.5秒),canvas.Screen,9_0_2,2023-01-08T09:44:13.961Z,,,b,,,270,272.1209999999992,timeout,e.jpg,,,113503.19999999995,113502.90000000014,113236,113236.6000000001,112981.571,113253.692,
刺激提示,canvas.Screen,9_0_3,2023-01-08T09:44:15.087Z,,,b,true,b,270,1371.9080000000977,response,e.jpg,b,keypress(f),114629.30000000005,114625.6000000001,113502.90000000014,113503.40000000014,113253.692,114386.98,
フィードバック(0.5秒),canvas.Screen,9_0_4,2023-01-08T09:44:15.342Z,,,b,,,270,233.3240000000078,timeout,e.jpg,,,114885,114884.5,114370.314,114630.69999999995,114386.98,114620.304,
トライアル,flow.Sequence,9_0,2023-01-08T09:44:15.343Z,,,b,,,270,2902.8889999999956,completion,e.jpg,,,114885.30000000005,114884.5,112246.1000000001,112246.40000000014,111981.611,114620.304,
空白時間1 (0.5秒),canvas.Screen,9_1_0,2023-01-08T09:44:15.575Z,,,b,,,180,233.32399999999325,timeout,e.jpg,,,115117.30000000005,115116.80000000005,114884.5,114885.6000000001,114620.304,114853.628,
注視(1秒),canvas.Screen,9_1_1,2023-01-08T09:44:16.318Z,,,b,,,180,749.9700000000012,timeout,e.jpg,,,115860.19999999995,115859.69999999995,115116.80000000005,115117.5,114853.628,115603.598,
空白時間2 (0.5秒),canvas.Screen,9_1_2,2023-01-08T09:44:16.567Z,,,b,,,180,249.99000000000524,timeout,e.jpg,,,116109.30000000005,116109,115859.69999999995,115860.5,115603.598,115853.588,
刺激提示,canvas.Screen,9_1_3,2023-01-08T09:44:18.681Z,,,b,false,b,180,2366.0120000000898,response,e.jpg,d,keypress(j),118223.19999999995,118219.6000000001,116109,116109.5,115853.588,117986.836,
フィードバック(0.5秒),canvas.Screen,9_1_4,2023-01-08T09:44:18.941Z,,,b,,,180,233.3240000000078,timeout,e.jpg,,,118483.6000000001,118483.40000000014,117970.17,118235.5,117986.836,118220.16,
トライアル,flow.Sequence,9_1,2023-01-08T09:44:18.942Z,,,b,,,180,3863.096000000136,completion,e.jpg,,,118484,118483.40000000014,114884.5,114885.5,114620.304,118220.16,
空白時間1 (0.5秒),canvas.Screen,9_2_0,2023-01-08T09:44:19.186Z,,,d,,,0,266.6560000000027,timeout,eR.jpg,,,118728.1000000001,118727.80000000005,118483.40000000014,118484.30000000005,118220.16,118486.816,
注視(1秒),canvas.Screen,9_2_1,2023-01-08T09:44:19.943Z,,,d,,,0,733.3039999999892,timeout,eR.jpg,,,119485.6000000001,119485.30000000005,118727.80000000005,118728.5,118486.816,119220.12,
空白時間2 (0.5秒),canvas.Screen,9_2_2,2023-01-08T09:44:20.184Z,,,d,,,0,249.99000000000524,timeout,eR.jpg,,,119726.1000000001,119726,119485.30000000005,119485.80000000005,119220.12,119470.11,
刺激提示,canvas.Screen,9_2_3,2023-01-08T09:44:21.706Z,,,d,true,d,0,1771.4900000000926,response,eR.jpg,d,keypress(j),121248,121241.6000000001,119726,119726.19999999995,119470.11,121003.382,
フィードバック(0.5秒),canvas.Screen,9_2_4,2023-01-08T09:44:21.966Z,,,d,,,0,249.99000000000524,timeout,eR.jpg,,,121508.30000000005,121508,120986.716,121249.30000000005,121003.382,121253.372,
トライアル,flow.Sequence,9_2,2023-01-08T09:44:21.966Z,,,d,,,0,3287.8399999999965,completion,eR.jpg,,,121508.6000000001,121508,118483.40000000014,118484.19999999995,118220.16,121253.372,
空白時間1 (0.5秒),canvas.Screen,9_3_0,2023-01-08T09:44:22.215Z,,,b,,,90,249.9899999999907,timeout,e.jpg,,,121757.30000000005,121757.1000000001,121508,121508.69999999995,121253.372,121503.362,
注視(1秒),canvas.Screen,9_3_1,2023-01-08T09:44:22.964Z,,,b,,,90,749.9700000000012,timeout,e.jpg,,,122506.80000000005,122506.5,121757.1000000001,121757.5,121503.362,122253.332,
空白時間2 (0.5秒),canvas.Screen,9_3_2,2023-01-08T09:44:23.208Z,,,b,,,90,233.3240000000078,timeout,e.jpg,,,122750.30000000005,122749.90000000014,122506.5,122507,122253.332,122486.656,
刺激提示,canvas.Screen,9_3_3,2023-01-08T09:44:24.091Z,,,b,true,b,90,1140.8439999999973,response,e.jpg,b,keypress(f),123633.40000000014,123627.5,122749.90000000014,122750.6000000001,122486.656,123403.286,
フィードバック(0.5秒),canvas.Screen,9_3_4,2023-01-08T09:44:24.369Z,,,b,,,90,242.1490000000049,timeout,e.jpg,,,123911.1000000001,123910.80000000005,123386.62,123651.30000000005,123403.286,123645.435,
トライアル,flow.Sequence,9_3,2023-01-08T09:44:24.369Z,,,b,,,90,2657.4280000000435,completion,e.jpg,,,123911.5,123910.80000000005,121508,121508.6000000001,121253.372,123645.435,
空白時間1 (0.5秒),canvas.Screen,9_4_0,2023-01-08T09:44:24.613Z,,,d,,,180,249.99000000000524,timeout,eR.jpg,,,124155.19999999995,124155,123910.80000000005,123911.6000000001,123645.435,123895.425,
注視(1秒),canvas.Screen,9_4_1,2023-01-08T09:44:25.351Z,,,d,,,180,749.9700000000012,timeout,eR.jpg,,,124892.80000000005,124892.40000000014,124155,124155.40000000014,123895.425,124645.395,
空白時間2 (0.5秒),canvas.Screen,9_4_2,2023-01-08T09:44:25.606Z,,,d,,,180,249.9899999999907,timeout,eR.jpg,,,125148.40000000014,125147.80000000005,124892.40000000014,124893.1000000001,124645.395,124895.385,
刺激提示,canvas.Screen,9_4_3,2023-01-08T09:44:28.156Z,,,d,false,d,180,2799.915000000052,response,eR.jpg,b,keypress(f),127698.6000000001,127695.30000000005,125147.80000000005,125148.69999999995,124895.385,127461.949,
フィードバック(0.5秒),canvas.Screen,9_4_4,2023-01-08T09:44:28.421Z,,,d,,,180,249.99000000000524,timeout,eR.jpg,,,127963.40000000014,127963.19999999995,127445.283,127710.90000000014,127461.949,127711.939,
トライアル,flow.Sequence,9_4,2023-01-08T09:44:28.421Z,,,d,,,180,4317.764999999956,completion,eR.jpg,,,127963.69999999995,127963.19999999995,123910.80000000005,123911.6000000001,123645.435,127711.939,
空白時間1 (0.5秒),canvas.Screen,9_5_0,2023-01-08T09:44:28.677Z,,,b,,,45,249.99000000000524,timeout,e.jpg,,,128219,128218.69999999995,127963.19999999995,127963.69999999995,127711.939,127961.929,
注視(1秒),canvas.Screen,9_5_1,2023-01-08T09:44:29.413Z,,,b,,,45,733.3039999999892,timeout,e.jpg,,,128955.6000000001,128955.5,128218.69999999995,128219.30000000005,127961.929,128695.233,
空白時間2 (0.5秒),canvas.Screen,9_5_2,2023-01-08T09:44:29.664Z,,,b,,,45,249.99000000000524,timeout,e.jpg,,,129206.19999999995,129205.40000000014,128955.5,128955.80000000005,128695.233,128945.223,
刺激提示,canvas.Screen,9_5_3,2023-01-08T09:44:33.226Z,,,b,true,b,45,3818.777000000002,response,e.jpg,b,keypress(f),132767.90000000014,132764,129205.40000000014,129206.69999999995,128945.223,132545.079,
フィードバック(0.5秒),canvas.Screen,9_5_4,2023-01-08T09:44:33.504Z,,,b,,,45,249.9899999999907,timeout,e.jpg,,,133046.5,133046.1000000001,132528.413,132781,132545.079,132795.069,
トライアル,flow.Sequence,9_5,2023-01-08T09:44:33.505Z,,,b,,,45,5334.161000000095,completion,e.jpg,,,133046.90000000014,133046.1000000001,127963.19999999995,127963.69999999995,127711.939,132795.069,
空白時間1 (0.5秒),canvas.Screen,9_6_0,2023-01-08T09:44:33.750Z,,,d,,,90,233.32400000002235,timeout,eR.jpg,,,133291.80000000005,133291.6000000001,133046.1000000001,133047.6000000001,132795.069,133028.393,
注視(1秒),canvas.Screen,9_6_1,2023-01-08T09:44:34.493Z,,,d,,,90,749.9700000000012,timeout,eR.jpg,,,134034.80000000005,134034.6000000001,133291.6000000001,133291.90000000014,133028.393,133778.363,
空白時間2 (0.5秒),canvas.Screen,9_6_2,2023-01-08T09:44:34.743Z,,,d,,,90,256.7619999999879,timeout,eR.jpg,,,134284.69999999995,134284.30000000005,134034.6000000001,134035,133778.363,134035.125,
刺激提示,canvas.Screen,9_6_3,2023-01-08T09:44:38.591Z,,,d,false,d,90,4093.875,response,eR.jpg,b,keypress(f),138132.80000000005,138129,134284.30000000005,134284.90000000014,134035.125,137901.637,
フィードバック(0.5秒),canvas.Screen,9_6_4,2023-01-08T09:44:38.865Z,,,d,,,90,249.9900000000198,timeout,eR.jpg,,,138406.80000000005,138406.40000000014,137884.971,138144.5,137901.637,138151.627,
トライアル,flow.Sequence,9_6,2023-01-08T09:44:38.865Z,,,d,,,90,5611.331000000151,completion,eR.jpg,,,138407.40000000014,138406.40000000014,133046.1000000001,133047.19999999995,132795.069,138151.627,
空白時間1 (0.5秒),canvas.Screen,9_7_0,2023-01-08T09:44:39.111Z,,,b,,,315,249.9899999999907,timeout,e.jpg,,,138653.40000000014,138653,138406.40000000014,138407.6000000001,138151.627,138401.617,
注視(1秒),canvas.Screen,9_7_1,2023-01-08T09:44:39.863Z,,,b,,,315,749.9700000000012,timeout,e.jpg,,,139404.90000000014,139404.69999999995,138653,138653.5,138401.617,139151.587,
空白時間2 (0.5秒),canvas.Screen,9_7_2,2023-01-08T09:44:40.112Z,,,b,,,315,249.9899999999907,timeout,e.jpg,,,139654.19999999995,139654,139404.69999999995,139405.1000000001,139151.587,139401.577,
刺激提示,canvas.Screen,9_7_3,2023-01-08T09:44:42.038Z,,,b,true,b,315,2174.023000000103,response,e.jpg,b,keypress(f),141579.69999999995,141575.6000000001,139654,139654.40000000014,139401.577,141351.499,
フィードバック(0.5秒),canvas.Screen,9_7_4,2023-01-08T09:44:42.312Z,,,b,,,315,249.9899999999907,timeout,e.jpg,,,141854.30000000005,141854.1000000001,141334.833,141593.1000000001,141351.499,141601.489,
トライアル,flow.Sequence,9_7,2023-01-08T09:44:42.313Z,,,b,,,315,3702.4730000000854,completion,e.jpg,,,141854.5,141854.1000000001,138406.40000000014,138407.5,138151.627,141601.489,
空白時間1 (0.5秒),canvas.Screen,9_8_0,2023-01-08T09:44:42.568Z,,,b,,,0,249.9899999999907,timeout,e.jpg,,,142109.6000000001,142109.40000000014,141854.1000000001,141854.69999999995,141601.489,141851.479,
注視(1秒),canvas.Screen,9_8_1,2023-01-08T09:44:43.329Z,,,b,,,0,766.6359999999986,timeout,e.jpg,,,142870.69999999995,142870.1000000001,142109.40000000014,142109.80000000005,141851.479,142618.115,
空白時間2 (0.5秒),canvas.Screen,9_8_2,2023-01-08T09:44:43.574Z,,,b,,,0,233.32400000002235,timeout,e.jpg,,,143115.6000000001,143115.40000000014,142870.1000000001,142871.1000000001,142618.115,142851.439,
刺激提示,canvas.Screen,9_8_3,2023-01-08T09:44:44.888Z,,,b,true,b,0,1572.060999999987,response,e.jpg,b,keypress(f),144429.69999999995,144423.5,143115.40000000014,143115.80000000005,142851.439,144184.719,
フィードバック(0.5秒),canvas.Screen,9_8_4,2023-01-08T09:44:45.141Z,,,b,,,0,239.23399999999674,timeout,e.jpg,,,144683.1000000001,144682.90000000014,144168.053,144431.69999999995,144184.719,144423.953,
トライアル,flow.Sequence,9_8,2023-01-08T09:44:45.141Z,,,b,,,0,3081.4110000001383,completion,e.jpg,,,144683.30000000005,144682.90000000014,141854.1000000001,141854.6000000001,141601.489,144423.953,
空白時間1 (0.5秒),canvas.Screen,9_9_0,2023-01-08T09:44:45.389Z,,,d,,,45,249.9899999999907,timeout,eR.jpg,,,144931,144930.80000000005,144682.90000000014,144683.40000000014,144423.953,144673.943,
注視(1秒),canvas.Screen,9_9_1,2023-01-08T09:44:46.133Z,,,d,,,45,749.9700000000012,timeout,eR.jpg,,,145674.69999999995,145674.5,144930.80000000005,144931.19999999995,144673.943,145423.913,
空白時間2 (0.5秒),canvas.Screen,9_9_2,2023-01-08T09:44:46.401Z,,,d,,,45,266.6559999999881,timeout,eR.jpg,,,145942.5,145942.1000000001,145674.5,145675,145423.913,145690.569,
刺激提示,canvas.Screen,9_9_3,2023-01-08T09:44:48.435Z,,,d,true,d,45,2281.831000000151,response,eR.jpg,d,keypress(j),147976.30000000005,147972.40000000014,145942.1000000001,145942.80000000005,145690.569,147757.153,
フィードバック(0.5秒),canvas.Screen,9_9_4,2023-01-08T09:44:48.710Z,,,d,,,45,233.32400000002235,timeout,eR.jpg,,,148251.6000000001,148251.19999999995,147740.487,147988.80000000005,147757.153,147990.477,
トライアル,flow.Sequence,9_9,2023-01-08T09:44:48.710Z,,,d,,,45,3827.246999999945,completion,eR.jpg,,,148252,148251.19999999995,144682.90000000014,144683.30000000005,144423.953,147990.477,
空白時間1 (0.5秒),canvas.Screen,9_10_0,2023-01-08T09:44:48.949Z,,,d,,,270,249.9899999999907,timeout,eR.jpg,,,148490.69999999995,148490.5,148251.19999999995,148252.1000000001,147990.477,148240.467,
注視(1秒),canvas.Screen,9_10_1,2023-01-08T09:44:49.703Z,,,d,,,270,749.9700000000012,timeout,eR.jpg,,,149244.30000000005,149244,148490.5,148490.90000000014,148240.467,148990.437,
空白時間2 (0.5秒),canvas.Screen,9_10_2,2023-01-08T09:44:49.958Z,,,d,,,270,249.9899999999907,timeout,eR.jpg,,,149499.90000000014,149499.6000000001,149244,149244.6000000001,148990.437,149240.427,
刺激提示,canvas.Screen,9_10_3,2023-01-08T09:44:52.346Z,,,d,true,d,270,2641.073000000004,response,eR.jpg,d,keypress(j),151887.40000000014,151881.5,149499.6000000001,149500.1000000001,149240.427,151690.329,
フィードバック(0.5秒),canvas.Screen,9_10_4,2023-01-08T09:44:52.646Z,,,d,,,270,233.32399999999325,timeout,eR.jpg,,,152187.30000000005,152186.80000000005,151673.663,151907.19999999995,151690.329,151923.653,
トライアル,flow.Sequence,9_10,2023-01-08T09:44:52.646Z,,,d,,,270,4196.323000000033,completion,eR.jpg,,,152187.6000000001,152186.80000000005,148251.19999999995,148252.1000000001,147990.477,151923.653,
空白時間1 (0.5秒),canvas.Screen,9_11_0,2023-01-08T09:44:52.890Z,,,d,,,135,249.9900000000198,timeout,eR.jpg,,,152431.19999999995,152431,152186.80000000005,152187.80000000005,151923.653,152173.643,
注視(1秒),canvas.Screen,9_11_1,2023-01-08T09:44:53.638Z,,,d,,,135,749.9700000000012,timeout,eR.jpg,,,153179.80000000005,153179.5,152431,152431.30000000005,152173.643,152923.613,
空白時間2 (0.5秒),canvas.Screen,9_11_2,2023-01-08T09:44:53.888Z,,,d,,,135,249.9899999999907,timeout,eR.jpg,,,153429.69999999995,153429.40000000014,153179.5,153180,152923.613,153173.603,
刺激提示,canvas.Screen,9_11_3,2023-01-08T09:44:57.190Z,,,d,true,d,135,3553.297000000137,response,eR.jpg,d,keypress(j),156731.30000000005,156726.90000000014,153429.40000000014,153430.1000000001,153173.603,156506.803,
フィードバック(0.5秒),canvas.Screen,9_11_4,2023-01-08T09:44:57.469Z,,,d,,,135,255.26699999999255,timeout,eR.jpg,,,157011,157010.69999999995,156490.137,156745.6000000001,156506.803,156762.07,
トライアル,flow.Sequence,9_11,2023-01-08T09:44:57.470Z,,,d,,,135,5087.046999999962,completion,eR.jpg,,,157011.30000000005,157010.69999999995,152186.80000000005,152187.69999999995,151923.653,156762.07,
空白時間1 (0.5秒),canvas.Screen,9_12_0,2023-01-08T09:44:57.726Z,,,d,,,225,249.9899999999907,timeout,eR.jpg,,,157267.1000000001,157266.6000000001,157010.69999999995,157011.6000000001,156762.07,157012.06,
注視(1秒),canvas.Screen,9_12_1,2023-01-08T09:44:58.462Z,,,d,,,225,733.3040000000037,timeout,eR.jpg,,,158003.5,158003.30000000005,157266.6000000001,157267.40000000014,157012.06,157745.364,
空白時間2 (0.5秒),canvas.Screen,9_12_2,2023-01-08T09:44:58.712Z,,,d,,,225,249.9899999999907,timeout,eR.jpg,,,158253.30000000005,158253.19999999995,158003.30000000005,158003.69999999995,157745.364,157995.354,
刺激提示,canvas.Screen,9_12_3,2023-01-08T09:45:00.647Z,,,d,false,d,225,2189.146000000008,response,eR.jpg,b,keypress(f),160188.40000000014,160184.5,158253.19999999995,158253.5,157995.354,159961.942,
フィードバック(0.5秒),canvas.Screen,9_12_4,2023-01-08T09:45:00.922Z,,,d,,,225,249.9899999999907,timeout,eR.jpg,,,160463.5,160463.40000000014,159945.276,160203.30000000005,159961.942,160211.932,
トライアル,flow.Sequence,9_12,2023-01-08T09:45:00.922Z,,,d,,,225,3701.3300000001327,completion,eR.jpg,,,160463.80000000005,160463.40000000014,157010.69999999995,157011.40000000014,156762.07,160211.932,
空白時間1 (0.5秒),canvas.Screen,9_13_0,2023-01-08T09:45:01.186Z,,,d,,,315,266.6559999999881,timeout,eR.jpg,,,160726.90000000014,160726.69999999995,160463.40000000014,160463.80000000005,160211.932,160478.588,
注視(1秒),canvas.Screen,9_13_1,2023-01-08T09:45:01.934Z,,,d,,,315,733.3040000000037,timeout,eR.jpg,,,161475,161474.90000000014,160726.69999999995,160727.40000000014,160478.588,161211.892,
空白時間2 (0.5秒),canvas.Screen,9_13_2,2023-01-08T09:45:02.177Z,,,d,,,315,249.9900000000198,timeout,eR.jpg,,,161718.69999999995,161718.6000000001,161474.90000000014,161475.30000000005,161211.892,161461.882,
刺激提示,canvas.Screen,9_13_3,2023-01-08T09:45:04.067Z,,,d,false,d,315,2142.5180000001274,response,eR.jpg,b,keypress(f),163608.5,163604.40000000014,161718.6000000001,161718.90000000014,161461.882,163378.472,
フィードバック(0.5秒),canvas.Screen,9_13_4,2023-01-08T09:45:04.337Z,,,d,,,315,249.9899999999907,timeout,eR.jpg,,,163878.6000000001,163878.40000000014,163361.806,163621,163378.472,163628.462,
トライアル,flow.Sequence,9_13,2023-01-08T09:45:04.337Z,,,d,,,315,3666.468000000139,completion,eR.jpg,,,163878.69999999995,163878.40000000014,160463.40000000014,160463.80000000005,160211.932,163628.462,
空白時間1 (0.5秒),canvas.Screen,9_14_0,2023-01-08T09:45:04.590Z,,,b,,,225,249.9899999999907,timeout,e.jpg,,,164131.5,164131.19999999995,163878.40000000014,163878.90000000014,163628.462,163878.452,
注視(1秒),canvas.Screen,9_14_1,2023-01-08T09:45:05.341Z,,,b,,,225,766.6359999999986,timeout,e.jpg,,,164882.80000000005,164882.5,164131.19999999995,164131.69999999995,163878.452,164645.088,
空白時間2 (0.5秒),canvas.Screen,9_14_2,2023-01-08T09:45:05.608Z,,,b,,,225,249.9900000000198,timeout,e.jpg,,,165149.5,165149.30000000005,164882.5,164882.90000000014,164645.088,164895.078,
刺激提示,canvas.Screen,9_14_3,2023-01-08T09:45:08.161Z,,,b,true,b,225,2803.121999999945,response,e.jpg,b,keypress(f),167702.5,167698.19999999995,165149.30000000005,165149.69999999995,164895.078,167494.974,
フィードバック(0.5秒),canvas.Screen,9_14_4,2023-01-08T09:45:08.455Z,,,b,,,225,240.30200000002515,timeout,e.jpg,,,167995.80000000005,167995.6000000001,167478.308,167718.69999999995,167494.974,167735.276,
トライアル,flow.Sequence,9_14,2023-01-08T09:45:08.455Z,,,b,,,225,4367.138000000094,completion,e.jpg,,,167996.1000000001,167995.6000000001,163878.40000000014,163878.80000000005,163628.462,167735.276,
空白時間1 (0.5秒),canvas.Screen,9_15_0,2023-01-08T09:45:08.697Z,,,b,,,135,249.9899999999907,timeout,e.jpg,,,168238.6000000001,168238.30000000005,167995.6000000001,167996.19999999995,167735.276,167985.266,
注視(1秒),canvas.Screen,9_15_1,2023-01-08T09:45:09.446Z,,,b,,,135,749.9700000000012,timeout,e.jpg,,,168987.1000000001,168986.69999999995,168238.30000000005,168238.80000000005,167985.266,168735.236,
空白時間2 (0.5秒),canvas.Screen,9_15_2,2023-01-08T09:45:09.701Z,,,b,,,135,249.9899999999907,timeout,e.jpg,,,169242.6000000001,169242.40000000014,168986.69999999995,168987.40000000014,168735.236,168985.226,
刺激提示,canvas.Screen,9_15_3,2023-01-08T09:45:11.659Z,,,b,true,b,135,2210.874000000098,response,e.jpg,b,keypress(f),171199.80000000005,171196.1000000001,169242.40000000014,169242.69999999995,168985.226,170985.146,
フィードバック(0.5秒),canvas.Screen,9_15_4,2023-01-08T09:45:11.942Z,,,b,,,135,233.32399999999325,timeout,e.jpg,,,171482.90000000014,171482.6000000001,170968.48,171201.6000000001,170985.146,171218.47,
トライアル,flow.Sequence,9_15,2023-01-08T09:45:11.942Z,,,b,,,135,3747.3240000000806,completion,e.jpg,,,171483.40000000014,171482.6000000001,167995.6000000001,167996.19999999995,167735.276,171218.47,
タスクのセット,flow.Loop,9,2023-01-08T09:45:11.942Z,,,,,,,59500.98900000009,completion,,,,171483.6000000001,171482.6000000001,112246.1000000001,112246.40000000014,111981.611,171218.47,
空白時間1 (0.5秒),canvas.Screen,10_0_0,2023-01-08T09:45:12.182Z,,,d,,,0,249.9899999999907,timeout,eR.jpg,,,171723.6000000001,171723.19999999995,171482.6000000001,171483.80000000005,171218.47,171468.46,
注視(1秒),canvas.Screen,10_0_1,2023-01-08T09:45:12.930Z,,,d,,,0,749.9700000000012,timeout,eR.jpg,,,172470.69999999995,172470.5,171723.19999999995,171723.80000000005,171468.46,172218.43,
空白時間2 (0.5秒),canvas.Screen,10_0_2,2023-01-08T09:45:13.185Z,,,d,,,0,283.32200000001467,timeout,eR.jpg,,,172725.80000000005,172725.5,172470.5,172470.80000000005,172218.43,172501.752,
刺激提示,canvas.Screen,10_0_3,2023-01-08T09:45:14.974Z,,,d,true,d,0,2009.3480000000854,response,eR.jpg,d,keypress(j),174515,174511.1000000001,172725.5,172726.5,172501.752,174285.014,
フィードバック(0.5秒),canvas.Screen,10_0_4,2023-01-08T09:45:15.246Z,,,d,,,0,249.9899999999907,timeout,eR.jpg,,,174787.5,174787.30000000005,174268.348,174529.5,174285.014,174535.004,
トライアル,flow.Sequence,10_0,2023-01-08T09:45:15.247Z,,,d,,,0,3568.8300000000454,completion,eR.jpg,,,174787.80000000005,174787.30000000005,171482.6000000001,171483.69999999995,171218.47,174535.004,
空白時間1 (0.5秒),canvas.Screen,10_1_0,2023-01-08T09:45:15.494Z,,,d,,,135,249.9900000000198,timeout,eR.jpg,,,175035.40000000014,175035.19999999995,174787.30000000005,174787.80000000005,174535.004,174784.994,
注視(1秒),canvas.Screen,10_1_1,2023-01-08T09:45:16.249Z,,,d,,,135,749.9700000000012,timeout,eR.jpg,,,175790.1000000001,175789.80000000005,175035.19999999995,175035.5,174784.994,175534.964,
空白時間2 (0.5秒),canvas.Screen,10_1_2,2023-01-08T09:45:16.494Z,,,d,,,135,249.9899999999907,timeout,eR.jpg,,,176034.90000000014,176034.6000000001,175789.80000000005,175790.30000000005,175534.964,175784.954,
刺激提示,canvas.Screen,10_1_3,2023-01-08T09:45:19.510Z,,,d,true,d,135,3259.6460000000952,response,eR.jpg,d,keypress(j),179051.30000000005,179044.6000000001,176034.6000000001,176035.30000000005,175784.954,178818.166,
フィードバック(0.5秒),canvas.Screen,10_1_4,2023-01-08T09:45:19.785Z,,,d,,,135,243.14199999999255,timeout,eR.jpg,,,179325.90000000014,179325.69999999995,178801.5,179067.40000000014,178818.166,179061.308,
トライアル,flow.Sequence,10_1,2023-01-08T09:45:19.785Z,,,d,,,135,4790.695999999967,completion,eR.jpg,,,179326.30000000005,179325.69999999995,174787.30000000005,174787.80000000005,174535.004,179061.308,
空白時間1 (0.5秒),canvas.Screen,10_2_0,2023-01-08T09:45:20.017Z,,,b,,,0,233.32400000002235,timeout,e.jpg,,,179558.30000000005,179557.80000000005,179325.69999999995,179326.40000000014,179061.308,179294.632,
注視(1秒),canvas.Screen,10_2_1,2023-01-08T09:45:20.760Z,,,b,,,0,749.9700000000012,timeout,e.jpg,,,180300.69999999995,180300.6000000001,179557.80000000005,179558.6000000001,179294.632,180044.602,
空白時間2 (0.5秒),canvas.Screen,10_2_2,2023-01-08T09:45:21.010Z,,,b,,,0,249.9899999999907,timeout,e.jpg,,,180550.6000000001,180550.30000000005,180300.6000000001,180300.90000000014,180044.602,180294.592,
刺激提示,canvas.Screen,10_2_3,2023-01-08T09:45:22.039Z,,,b,true,b,0,1281.3080000001355,response,e.jpg,b,keypress(f),181579.80000000005,181575.90000000014,180550.30000000005,180550.69999999995,180294.592,181344.55,
フィードバック(0.5秒),canvas.Screen,10_2_4,2023-01-08T09:45:22.311Z,,,b,,,0,249.9900000000198,timeout,e.jpg,,,181852.40000000014,181852.1000000001,181327.884,181580.90000000014,181344.55,181594.54,
トライアル,flow.Sequence,10_2,2023-01-08T09:45:22.312Z,,,b,,,0,2790.792000000103,completion,e.jpg,,,181852.6000000001,181852.1000000001,179325.69999999995,179326.40000000014,179061.308,181594.54,
空白時間1 (0.5秒),canvas.Screen,10_3_0,2023-01-08T09:45:22.559Z,,,d,,,315,249.9899999999907,timeout,eR.jpg,,,182100,182099.90000000014,181852.1000000001,181852.69999999995,181594.54,181844.53,
注視(1秒),canvas.Screen,10_3_1,2023-01-08T09:45:23.302Z,,,d,,,315,733.3040000000037,timeout,eR.jpg,,,182843.1000000001,182842.90000000014,182099.90000000014,182100.19999999995,181844.53,182577.834,
空白時間2 (0.5秒),canvas.Screen,10_3_2,2023-01-08T09:45:23.552Z,,,d,,,315,249.9899999999907,timeout,eR.jpg,,,183092.90000000014,183092.69999999995,182842.90000000014,182843.19999999995,182577.834,182827.824,
刺激提示,canvas.Screen,10_3_3,2023-01-08T09:45:24.653Z,,,d,true,d,315,1362.9760000000533,response,eR.jpg,d,keypress(j),184194.19999999995,184190.80000000005,183092.69999999995,183093.30000000005,182827.824,183994.444,
フィードバック(0.5秒),canvas.Screen,10_3_4,2023-01-08T09:45:24.951Z,,,d,,,315,233.32400000002235,timeout,eR.jpg,,,184492.19999999995,184491.90000000014,183977.778,184210.90000000014,183994.444,184227.768,
トライアル,flow.Sequence,10_3,2023-01-08T09:45:24.952Z,,,d,,,315,2897.3600000001315,completion,eR.jpg,,,184492.80000000005,184491.90000000014,181852.1000000001,181852.6000000001,181594.54,184227.768,
空白時間1 (0.5秒),canvas.Screen,10_4_0,2023-01-08T09:45:25.183Z,,,b,,,270,233.32399999999325,timeout,e.jpg,,,184724.1000000001,184723.90000000014,184491.90000000014,184492.90000000014,184227.768,184461.092,
注視(1秒),canvas.Screen,10_4_1,2023-01-08T09:45:25.926Z,,,b,,,270,749.9700000000012,timeout,e.jpg,,,185467,185466.80000000005,184723.90000000014,184724.19999999995,184461.092,185211.062,
空白時間2 (0.5秒),canvas.Screen,10_4_2,2023-01-08T09:45:26.176Z,,,b,,,270,249.9899999999907,timeout,e.jpg,,,185717.30000000005,185717,185466.80000000005,185467.19999999995,185211.062,185461.052,
刺激提示,canvas.Screen,10_4_3,2023-01-08T09:45:27.658Z,,,b,true,b,270,1733.8480000001437,response,e.jpg,b,keypress(f),187198.69999999995,187194.90000000014,185717,185717.40000000014,185461.052,186960.992,
フィードバック(0.5秒),canvas.Screen,10_4_4,2023-01-08T09:45:27.919Z,,,b,,,270,233.32399999999325,timeout,e.jpg,,,187459.80000000005,187459.6000000001,186944.326,187199.5,186960.992,187194.316,
トライアル,flow.Sequence,10_4,2023-01-08T09:45:27.919Z,,,b,,,270,3231.832000000082,completion,e.jpg,,,187460,187459.6000000001,184491.90000000014,184492.90000000014,184227.768,187194.316,
空白時間1 (0.5秒),canvas.Screen,10_5_0,2023-01-08T09:45:28.166Z,,,b,,,225,249.9900000000198,timeout,e.jpg,,,187706.90000000014,187706.6000000001,187459.6000000001,187460.1000000001,187194.316,187444.306,
注視(1秒),canvas.Screen,10_5_1,2023-01-08T09:45:28.910Z,,,b,,,225,749.9700000000012,timeout,e.jpg,,,188451,188450.69999999995,187706.6000000001,187707,187444.306,188194.276,
空白時間2 (0.5秒),canvas.Screen,10_5_2,2023-01-08T09:45:29.166Z,,,b,,,225,249.9899999999907,timeout,e.jpg,,,188707.19999999995,188707,188450.69999999995,188451.40000000014,188194.276,188444.266,
刺激提示,canvas.Screen,10_5_3,2023-01-08T09:45:30.109Z,,,b,true,b,225,1201.5340000000433,response,e.jpg,b,keypress(f),189649.90000000014,189645.80000000005,188707,188707.40000000014,188444.266,189427.56,
フィードバック(0.5秒),canvas.Screen,10_5_4,2023-01-08T09:45:30.384Z,,,b,,,225,240.25500000000466,timeout,e.jpg,,,189925.19999999995,189925,189410.894,189651.30000000005,189427.56,189667.815,
トライアル,flow.Sequence,10_5,2023-01-08T09:45:30.385Z,,,b,,,225,2730.6840000000084,completion,e.jpg,,,189925.40000000014,189925,187459.6000000001,187460.1000000001,187194.316,189667.815,
空白時間1 (0.5秒),canvas.Screen,10_6_0,2023-01-08T09:45:30.630Z,,,b,,,180,249.9899999999907,timeout,e.jpg,,,190170.6000000001,190170.5,189925,189925.40000000014,189667.815,189917.805,
注視(1秒),canvas.Screen,10_6_1,2023-01-08T09:45:31.383Z,,,b,,,180,749.9700000000012,timeout,e.jpg,,,190923.90000000014,190923.69999999995,190170.5,190170.69999999995,189917.805,190667.775,
空白時間2 (0.5秒),canvas.Screen,10_6_2,2023-01-08T09:45:31.623Z,,,b,,,180,249.9900000000198,timeout,e.jpg,,,191163.40000000014,191163.19999999995,190923.69999999995,190924.1000000001,190667.775,190917.765,
刺激提示,canvas.Screen,10_6_3,2023-01-08T09:45:32.800Z,,,b,false,b,180,1419.8350000000792,response,e.jpg,d,keypress(j),192340.30000000005,192337.6000000001,191163.19999999995,191163.5,190917.765,192117.717,
フィードバック(0.5秒),canvas.Screen,10_6_4,2023-01-08T09:45:33.073Z,,,b,,,180,233.32399999999325,timeout,e.jpg,,,192613.6000000001,192613.5,192101.051,192352.40000000014,192117.717,192351.041,
トライアル,flow.Sequence,10_6,2023-01-08T09:45:33.073Z,,,b,,,180,2945.6849999999977,completion,e.jpg,,,192614,192613.5,189925,189925.40000000014,189667.815,192351.041,
空白時間1 (0.5秒),canvas.Screen,10_7_0,2023-01-08T09:45:33.318Z,,,b,,,135,249.9899999999907,timeout,e.jpg,,,192858.6000000001,192858.40000000014,192613.5,192614.1000000001,192351.041,192601.031,
注視(1秒),canvas.Screen,10_7_1,2023-01-08T09:45:34.065Z,,,b,,,135,749.9700000000012,timeout,e.jpg,,,193606.19999999995,193606,192858.40000000014,192858.90000000014,192601.031,193351.001,
空白時間2 (0.5秒),canvas.Screen,10_7_2,2023-01-08T09:45:34.310Z,,,b,,,135,249.9900000000198,timeout,e.jpg,,,193850.69999999995,193850.5,193606,193606.30000000005,193351.001,193600.991,
刺激提示,canvas.Screen,10_7_3,2023-01-08T09:45:36.059Z,,,b,true,b,135,1994.609000000084,response,e.jpg,b,keypress(f),195599.5,195595.6000000001,193850.5,193850.90000000014,193600.991,195367.587,
フィードバック(0.5秒),canvas.Screen,10_7_4,2023-01-08T09:45:36.329Z,,,b,,,135,249.9899999999907,timeout,e.jpg,,,195869.6000000001,195869.5,195350.921,195600.40000000014,195367.587,195617.577,
トライアル,flow.Sequence,10_7,2023-01-08T09:45:36.329Z,,,b,,,135,3518.4590000000026,completion,e.jpg,,,195869.80000000005,195869.5,192613.5,192614.1000000001,192351.041,195617.577,
空白時間1 (0.5秒),canvas.Screen,10_8_0,2023-01-08T09:45:36.595Z,,,b,,,45,266.65600000001723,timeout,e.jpg,,,196135.1000000001,196135,195869.5,195869.80000000005,195617.577,195884.233,
注視(1秒),canvas.Screen,10_8_1,2023-01-08T09:45:37.345Z,,,b,,,45,749.9700000000012,timeout,e.jpg,,,196886.1000000001,196885.90000000014,196135,196135.30000000005,195884.233,196634.203,
空白時間2 (0.5秒),canvas.Screen,10_8_2,2023-01-08T09:45:37.606Z,,,b,,,45,249.9899999999907,timeout,e.jpg,,,197147.1000000001,197146.90000000014,196885.90000000014,196886.19999999995,196634.203,196884.193,
刺激提示,canvas.Screen,10_8_3,2023-01-08T09:45:38.893Z,,,b,true,b,45,1545.5069999999541,response,e.jpg,b,keypress(f),198433.5,198429.69999999995,197146.90000000014,197147.19999999995,196884.193,198234.139,
フィードバック(0.5秒),canvas.Screen,10_8_4,2023-01-08T09:45:39.191Z,,,b,,,45,233.32399999999325,timeout,e.jpg,,,198731.6000000001,198731.30000000005,198217.473,198454.69999999995,198234.139,198467.463,
トライアル,flow.Sequence,10_8,2023-01-08T09:45:39.191Z,,,b,,,45,3113.7230000000563,completion,e.jpg,,,198731.69999999995,198731.30000000005,195869.5,195869.80000000005,195617.577,198467.463,
空白時間1 (0.5秒),canvas.Screen,10_9_0,2023-01-08T09:45:39.440Z,,,d,,,90,266.65600000001723,timeout,eR.jpg,,,198980.90000000014,198980.80000000005,198731.30000000005,198731.90000000014,198467.463,198734.119,
注視(1秒),canvas.Screen,10_9_1,2023-01-08T09:45:40.202Z,,,d,,,90,749.9700000000012,timeout,eR.jpg,,,199742.1000000001,199741.90000000014,198980.80000000005,198981.1000000001,198734.119,199484.089,
空白時間2 (0.5秒),canvas.Screen,10_9_2,2023-01-08T09:45:40.447Z,,,d,,,90,238.28800000000047,timeout,eR.jpg,,,199987.1000000001,199987,199741.90000000014,199742.19999999995,199484.089,199722.377,
刺激提示,canvas.Screen,10_9_3,2023-01-08T09:45:42.098Z,,,d,true,d,90,1912.023000000132,response,eR.jpg,d,keypress(j),201638.30000000005,201634.40000000014,199987,199987.19999999995,199722.377,201405.643,
フィードバック(0.5秒),canvas.Screen,10_9_4,2023-01-08T09:45:42.367Z,,,d,,,90,249.9899999999907,timeout,eR.jpg,,,201907.40000000014,201907.19999999995,201388.977,201639.1000000001,201405.643,201655.633,
トライアル,flow.Sequence,10_9,2023-01-08T09:45:42.367Z,,,d,,,90,3439.7369999999646,completion,eR.jpg,,,201907.6000000001,201907.19999999995,198731.30000000005,198731.80000000005,198467.463,201655.633,
空白時間1 (0.5秒),canvas.Screen,10_10_0,2023-01-08T09:45:42.627Z,,,d,,,180,249.9899999999907,timeout,eR.jpg,,,202167.19999999995,202167,201907.19999999995,201907.6000000001,201655.633,201905.623,
注視(1秒),canvas.Screen,10_10_1,2023-01-08T09:45:43.359Z,,,d,,,180,749.9700000000012,timeout,eR.jpg,,,202899.90000000014,202899.6000000001,202167,202167.6000000001,201905.623,202655.593,
空白時間2 (0.5秒),canvas.Screen,10_10_2,2023-01-08T09:45:43.632Z,,,d,,,180,266.65600000001723,timeout,eR.jpg,,,203172.90000000014,203172.5,202899.6000000001,202900.1000000001,202655.593,202922.249,
刺激提示,canvas.Screen,10_10_3,2023-01-08T09:45:48.193Z,,,d,true,d,180,4808.151000000129,response,eR.jpg,d,keypress(j),207733.6000000001,207730.40000000014,203172.5,203173.1000000001,202922.249,207538.731,
フィードバック(0.5秒),canvas.Screen,10_10_4,2023-01-08T09:45:48.503Z,,,d,,,180,249.9899999999907,timeout,eR.jpg,,,208043.30000000005,208043.1000000001,207522.065,207758.80000000005,207538.731,207788.721,
トライアル,flow.Sequence,10_10,2023-01-08T09:45:48.503Z,,,d,,,180,6387.4670000000915,completion,eR.jpg,,,208043.5,208043.1000000001,201907.19999999995,201907.6000000001,201655.633,207788.721,
空白時間1 (0.5秒),canvas.Screen,10_11_0,2023-01-08T09:45:48.752Z,,,d,,,270,249.9900000000198,timeout,eR.jpg,,,208292.40000000014,208292.19999999995,208043.1000000001,208043.5,207788.721,208038.711,
注視(1秒),canvas.Screen,10_11_1,2023-01-08T09:45:49.496Z,,,d,,,270,733.3040000000037,timeout,eR.jpg,,,209035.90000000014,209035.69999999995,208292.19999999995,208292.6000000001,208038.711,208772.015,
空白時間2 (0.5秒),canvas.Screen,10_11_2,2023-01-08T09:45:49.737Z,,,d,,,270,249.9899999999907,timeout,eR.jpg,,,209277.5,209277.30000000005,209035.69999999995,209036,208772.015,209022.005,
刺激提示,canvas.Screen,10_11_3,2023-01-08T09:45:52.586Z,,,d,true,d,270,3100.395000000135,response,eR.jpg,d,keypress(j),212126.6000000001,212122.40000000014,209277.30000000005,209277.6000000001,209022.005,211921.889,
フィードバック(0.5秒),canvas.Screen,10_11_4,2023-01-08T09:45:52.890Z,,,d,,,270,256.55100000000675,timeout,eR.jpg,,,212429.80000000005,212429.5,211905.223,212141.69999999995,211921.889,212178.44,
トライアル,flow.Sequence,10_11,2023-01-08T09:45:52.890Z,,,d,,,270,4640.77900000001,completion,eR.jpg,,,212429.90000000014,212429.5,208043.1000000001,208043.5,207788.721,212178.44,
空白時間1 (0.5秒),canvas.Screen,10_12_0,2023-01-08T09:45:53.135Z,,,d,,,45,249.9899999999907,timeout,eR.jpg,,,212675.1000000001,212674.80000000005,212429.5,212430,212178.44,212428.43,
注視(1秒),canvas.Screen,10_12_1,2023-01-08T09:45:53.890Z,,,d,,,45,749.9700000000012,timeout,eR.jpg,,,213429.90000000014,213429.80000000005,212674.80000000005,212675.19999999995,212428.43,213178.4,
空白時間2 (0.5秒),canvas.Screen,10_12_2,2023-01-08T09:45:54.145Z,,,d,,,45,266.65600000001723,timeout,eR.jpg,,,213685,213684.90000000014,213429.80000000005,213430.1000000001,213178.4,213445.056,
刺激提示,canvas.Screen,10_12_3,2023-01-08T09:45:56.059Z,,,d,true,d,45,2150.244000000035,response,eR.jpg,d,keypress(j),215598.69999999995,215595.30000000005,213684.90000000014,213685.19999999995,213445.056,215361.646,
フィードバック(0.5秒),canvas.Screen,10_12_4,2023-01-08T09:45:56.328Z,,,d,,,45,266.6559999999881,timeout,eR.jpg,,,215867.80000000005,215867.69999999995,215344.98,215599.5,215361.646,215628.302,
トライアル,flow.Sequence,10_12,2023-01-08T09:45:56.328Z,,,d,,,45,3689.259999999951,completion,eR.jpg,,,215867.90000000014,215867.69999999995,212429.5,212430,212178.44,215628.302,
空白時間1 (0.5秒),canvas.Screen,10_13_0,2023-01-08T09:45:56.601Z,,,d,,,225,249.9899999999907,timeout,eR.jpg,,,216140.69999999995,216140.40000000014,215867.69999999995,215868.1000000001,215628.302,215878.292,
注視(1秒),canvas.Screen,10_13_1,2023-01-08T09:45:57.338Z,,,d,,,225,749.9700000000012,timeout,eR.jpg,,,216878,216877.80000000005,216140.40000000014,216140.80000000005,215878.292,216628.262,
空白時間2 (0.5秒),canvas.Screen,10_13_2,2023-01-08T09:45:57.593Z,,,d,,,225,266.65600000001723,timeout,eR.jpg,,,217133.5,217133.19999999995,216877.80000000005,216878.19999999995,216628.262,216894.918,
刺激提示,canvas.Screen,10_13_3,2023-01-08T09:46:01.562Z,,,d,true,d,225,4202.281999999948,response,eR.jpg,d,keypress(j),221101.6000000001,221097.19999999995,217133.19999999995,217133.6000000001,216894.918,220878.092,
フィードバック(0.5秒),canvas.Screen,10_13_4,2023-01-08T09:46:01.843Z,,,d,,,225,249.9899999999907,timeout,eR.jpg,,,221382.80000000005,221382.6000000001,220861.426,221116.30000000005,220878.092,221128.082,
トライアル,flow.Sequence,10_13,2023-01-08T09:46:01.843Z,,,d,,,225,5754.298000000097,completion,eR.jpg,,,221382.90000000014,221382.6000000001,215867.69999999995,215868.1000000001,215628.302,221128.082,
空白時間1 (0.5秒),canvas.Screen,10_14_0,2023-01-08T09:46:02.098Z,,,b,,,90,266.65600000001723,timeout,e.jpg,,,221637.90000000014,221637.69999999995,221382.6000000001,221383,221128.082,221394.738,
注視(1秒),canvas.Screen,10_14_1,2023-01-08T09:46:02.858Z,,,b,,,90,749.9700000000012,timeout,e.jpg,,,222398.40000000014,222398.30000000005,221637.69999999995,221638.1000000001,221394.738,222144.708,
空白時間2 (0.5秒),canvas.Screen,10_14_2,2023-01-08T09:46:03.103Z,,,b,,,90,240.02599999998347,timeout,e.jpg,,,222642.80000000005,222642.6000000001,222398.30000000005,222398.6000000001,222144.708,222384.734,
刺激提示,canvas.Screen,10_14_3,2023-01-08T09:46:04.045Z,,,b,true,b,90,1196.2660000000033,response,e.jpg,b,keypress(f),223585,223581,222642.6000000001,222642.90000000014,222384.734,223368.028,
フィードバック(0.5秒),canvas.Screen,10_14_4,2023-01-08T09:46:04.339Z,,,b,,,90,249.9900000000198,timeout,e.jpg,,,223878.6000000001,223878.30000000005,223351.362,223586,223368.028,223618.018,
トライアル,flow.Sequence,10_14,2023-01-08T09:46:04.339Z,,,b,,,90,2750.2180000000517,completion,e.jpg,,,223878.80000000005,223878.30000000005,221382.6000000001,221383,221128.082,223618.018,
空白時間1 (0.5秒),canvas.Screen,10_15_0,2023-01-08T09:46:04.577Z,,,b,,,315,233.32399999999325,timeout,e.jpg,,,224116.80000000005,224116.5,223878.30000000005,223878.90000000014,223618.018,223851.342,
注視(1秒),canvas.Screen,10_15_1,2023-01-08T09:46:05.314Z,,,b,,,315,749.9700000000012,timeout,e.jpg,,,224854,224853.69999999995,224116.5,224117,223851.342,224601.312,
空白時間2 (0.5秒),canvas.Screen,10_15_2,2023-01-08T09:46:05.562Z,,,b,,,315,249.9899999999907,timeout,e.jpg,,,225101.6000000001,225101.40000000014,224853.69999999995,224854.1000000001,224601.312,224851.302,
刺激提示,canvas.Screen,10_15_3,2023-01-08T09:46:06.796Z,,,b,true,b,315,1481.698000000004,response,e.jpg,b,keypress(f),226336,226333,225101.40000000014,225101.80000000005,224851.302,226117.918,
フィードバック(0.5秒),canvas.Screen,10_15_4,2023-01-08T09:46:07.090Z,,,b,,,315,249.9899999999907,timeout,e.jpg,,,226630.30000000005,226630.1000000001,226101.252,226350.1000000001,226117.918,226367.908,
トライアル,flow.Sequence,10_15,2023-01-08T09:46:07.091Z,,,b,,,315,3012.082000000082,completion,e.jpg,,,226630.40000000014,226630.1000000001,223878.30000000005,223878.90000000014,223618.018,226367.908,
タスクのセット,flow.Loop,10,2023-01-08T09:46:07.091Z,,,,,,,55411.63000000009,completion,,,,226630.5,226630.1000000001,171482.6000000001,171483.69999999995,171218.47,226367.908,
空白時間1 (0.5秒),canvas.Screen,11_0_0,2023-01-08T09:46:07.338Z,,,d,,,270,249.9899999999907,timeout,eR.jpg,,,226878,226877.90000000014,226630.1000000001,226630.69999999995,226367.908,226617.898,
注視(1秒),canvas.Screen,11_0_1,2023-01-08T09:46:08.071Z,,,d,,,270,733.3040000000037,timeout,eR.jpg,,,227611.19999999995,227611,226877.90000000014,226878.19999999995,226617.898,227351.202,
空白時間2 (0.5秒),canvas.Screen,11_0_2,2023-01-08T09:46:08.304Z,,,d,,,270,233.32400000002235,timeout,eR.jpg,,,227843.69999999995,227843.5,227611,227611.30000000005,227351.202,227584.526,
刺激提示,canvas.Screen,11_0_3,2023-01-08T09:46:09.268Z,,,d,true,d,270,1219.3740000001271,response,eR.jpg,d,keypress(j),228807.90000000014,228803.90000000014,227843.5,227844,227584.526,228601.152,
フィードバック(0.5秒),canvas.Screen,11_0_4,2023-01-08T09:46:09.569Z,,,d,,,270,249.9899999999907,timeout,eR.jpg,,,229109,229108.80000000005,228584.486,228809.90000000014,228601.152,228851.142,
トライアル,flow.Sequence,11_0,2023-01-08T09:46:09.569Z,,,d,,,270,2740.8920000000508,completion,eR.jpg,,,229109.19999999995,229108.80000000005,226630.1000000001,226630.69999999995,226367.908,228851.142,
空白時間1 (0.5秒),canvas.Screen,11_1_0,2023-01-08T09:46:09.819Z,,,d,,,45,249.9900000000198,timeout,eR.jpg,,,229359.1000000001,229358.90000000014,229108.80000000005,229109.30000000005,228851.142,229101.132,
注視(1秒),canvas.Screen,11_1_1,2023-01-08T09:46:10.568Z,,,d,,,45,749.9700000000012,timeout,eR.jpg,,,230107.90000000014,230107.69999999995,229358.90000000014,229359.19999999995,229101.132,229851.102,
空白時間2 (0.5秒),canvas.Screen,11_1_2,2023-01-08T09:46:10.818Z,,,d,,,45,249.9899999999907,timeout,eR.jpg,,,230357.5,230357.30000000005,230107.69999999995,230108.1000000001,229851.102,230101.092,
刺激提示,canvas.Screen,11_1_3,2023-01-08T09:46:11.996Z,,,d,true,d,45,1431.8080000001355,response,eR.jpg,d,keypress(j),231535.80000000005,231532.90000000014,230357.30000000005,230357.6000000001,230101.092,231301.044,
フィードバック(0.5秒),canvas.Screen,11_1_4,2023-01-08T09:46:12.273Z,,,d,,,45,266.65600000001723,timeout,eR.jpg,,,231812.40000000014,231812.19999999995,231284.378,231536.6000000001,231301.044,231567.7,
トライアル,flow.Sequence,11_1,2023-01-08T09:46:12.273Z,,,d,,,45,2961.057999999961,completion,eR.jpg,,,231812.6000000001,231812.19999999995,229108.80000000005,229109.30000000005,228851.142,231567.7,
空白時間1 (0.5秒),canvas.Screen,11_2_0,2023-01-08T09:46:12.536Z,,,b,,,135,249.9899999999907,timeout,e.jpg,,,232075.40000000014,232075.19999999995,231812.19999999995,231812.69999999995,231567.7,231817.69,
注視(1秒),canvas.Screen,11_2_1,2023-01-08T09:46:13.283Z,,,b,,,135,749.9700000000012,timeout,e.jpg,,,232822.40000000014,232822.1000000001,232075.19999999995,232075.6000000001,231817.69,232567.66,
空白時間2 (0.5秒),canvas.Screen,11_2_2,2023-01-08T09:46:13.529Z,,,b,,,135,240.25299999999697,timeout,e.jpg,,,233068.6000000001,233068.5,232822.1000000001,232822.5,232567.66,232807.913,
刺激提示,canvas.Screen,11_2_3,2023-01-08T09:46:14.730Z,,,b,true,b,135,1455.887000000046,response,e.jpg,b,keypress(f),234269.5,234263.80000000005,233068.5,233068.69999999995,232807.913,234041.197,
フィードバック(0.5秒),canvas.Screen,11_2_4,2023-01-08T09:46:15.009Z,,,b,,,135,266.65600000001723,timeout,e.jpg,,,234548.30000000005,234548.1000000001,234024.531,234284.5,234041.197,234307.853,
トライアル,flow.Sequence,11_2,2023-01-08T09:46:15.009Z,,,b,,,135,2980.4000000000815,completion,e.jpg,,,234548.40000000014,234548.1000000001,231812.19999999995,231812.69999999995,231567.7,234307.853,
空白時間1 (0.5秒),canvas.Screen,11_3_0,2023-01-08T09:46:15.282Z,,,b,,,180,249.9899999999907,timeout,e.jpg,,,234821.30000000005,234821,234548.1000000001,234548.5,234307.853,234557.843,
注視(1秒),canvas.Screen,11_3_1,2023-01-08T09:46:16.025Z,,,b,,,180,749.9700000000012,timeout,e.jpg,,,235564.6000000001,235564.40000000014,234821,234821.5,234557.843,235307.813,
空白時間2 (0.5秒),canvas.Screen,11_3_2,2023-01-08T09:46:16.280Z,,,b,,,180,249.9900000000198,timeout,e.jpg,,,235819.90000000014,235819.69999999995,235564.40000000014,235564.69999999995,235307.813,235557.803,
刺激提示,canvas.Screen,11_3_3,2023-01-08T09:46:17.602Z,,,b,true,b,180,1579.7970000000787,response,e.jpg,b,keypress(f),237141.69999999995,237137.6000000001,235819.69999999995,235820.30000000005,235557.803,236941.081,
フィードバック(0.5秒),canvas.Screen,11_3_4,2023-01-08T09:46:17.905Z,,,b,,,180,249.9899999999907,timeout,e.jpg,,,237445.19999999995,237445,236924.415,237142.80000000005,236941.081,237191.071,
トライアル,flow.Sequence,11_3,2023-01-08T09:46:17.906Z,,,b,,,180,3137.146999999997,completion,e.jpg,,,237445.30000000005,237445,234548.1000000001,234548.5,234307.853,237191.071,
空白時間1 (0.5秒),canvas.Screen,11_4_0,2023-01-08T09:46:18.155Z,,,d,,,0,266.65600000001723,timeout,eR.jpg,,,237694.5,237694.30000000005,237445,237445.40000000014,237191.071,237457.727,
注視(1秒),canvas.Screen,11_4_1,2023-01-08T09:46:18.921Z,,,d,,,0,749.9699999999721,timeout,eR.jpg,,,238460.80000000005,238460.6000000001,237694.30000000005,237694.69999999995,237457.727,238207.697,
空白時間2 (0.5秒),canvas.Screen,11_4_2,2023-01-08T09:46:19.171Z,,,d,,,0,249.9900000000198,timeout,eR.jpg,,,238711,238710.80000000005,238460.6000000001,238460.90000000014,238207.697,238457.687,
刺激提示,canvas.Screen,11_4_3,2023-01-08T09:46:21.735Z,,,d,true,d,0,2812.913000000088,response,eR.jpg,d,keypress(j),241274.19999999995,241270.6000000001,238710.80000000005,238711,238457.687,241057.583,
フィードバック(0.5秒),canvas.Screen,11_4_4,2023-01-08T09:46:22.015Z,,,d,,,0,233.32399999999325,timeout,eR.jpg,,,241554.80000000005,241554.5,241040.917,241290.6000000001,241057.583,241290.907,
トライアル,flow.Sequence,11_4,2023-01-08T09:46:22.016Z,,,d,,,0,4363.429000000004,completion,eR.jpg,,,241555.1000000001,241554.5,237445,237445.40000000014,237191.071,241290.907,
空白時間1 (0.5秒),canvas.Screen,11_5_0,2023-01-08T09:46:22.242Z,,,d,,,315,233.32399999999325,timeout,eR.jpg,,,241781.19999999995,241781.1000000001,241554.5,241555.19999999995,241290.907,241524.231,
注視(1秒),canvas.Screen,11_5_1,2023-01-08T09:46:22.992Z,,,d,,,315,749.9700000000012,timeout,eR.jpg,,,242531.5,242531.19999999995,241781.1000000001,241781.5,241524.231,242274.201,
空白時間2 (0.5秒),canvas.Screen,11_5_2,2023-01-08T09:46:23.248Z,,,d,,,315,249.9899999999907,timeout,eR.jpg,,,242787.1000000001,242786.69999999995,242531.19999999995,242531.6000000001,242274.201,242524.191,
刺激提示,canvas.Screen,11_5_3,2023-01-08T09:46:25.981Z,,,d,true,d,315,2992.609000000055,response,eR.jpg,d,keypress(j),245520.90000000014,245516.80000000005,242786.69999999995,242787.30000000005,242524.191,245290.747,
フィードバック(0.5秒),canvas.Screen,11_5_4,2023-01-08T09:46:26.259Z,,,d,,,315,243.17499999998836,timeout,eR.jpg,,,245798.40000000014,245798.1000000001,245274.081,245532.80000000005,245290.747,245533.922,
トライアル,flow.Sequence,11_5,2023-01-08T09:46:26.259Z,,,d,,,315,4507.193000000087,completion,eR.jpg,,,245798.80000000005,245798.1000000001,241554.5,241555.19999999995,241290.907,245533.922,
空白時間1 (0.5秒),canvas.Screen,11_6_0,2023-01-08T09:46:26.495Z,,,d,,,180,249.9900000000198,timeout,eR.jpg,,,246034.90000000014,246034.6000000001,245798.1000000001,245799.19999999995,245533.922,245783.912,
注視(1秒),canvas.Screen,11_6_1,2023-01-08T09:46:27.240Z,,,d,,,180,733.3039999999746,timeout,eR.jpg,,,246779.6000000001,246779.40000000014,246034.6000000001,246035.19999999995,245783.912,246517.216,
空白時間2 (0.5秒),canvas.Screen,11_6_2,2023-01-08T09:46:27.482Z,,,d,,,180,249.9900000000198,timeout,eR.jpg,,,247021.1000000001,247020.90000000014,246779.40000000014,246779.69999999995,246517.216,246767.206,
刺激提示,canvas.Screen,11_6_3,2023-01-08T09:46:29.534Z,,,d,false,d,180,2302.194000000134,response,eR.jpg,b,keypress(f),249073.19999999995,249069.40000000014,247020.90000000014,247021.19999999995,246767.206,248850.456,
フィードバック(0.5秒),canvas.Screen,11_6_4,2023-01-08T09:46:29.812Z,,,d,,,180,249.9899999999907,timeout,eR.jpg,,,249351,249350.80000000005,248833.79,249087.30000000005,248850.456,249100.446,
トライアル,flow.Sequence,11_6,2023-01-08T09:46:29.812Z,,,d,,,180,3816.878000000055,completion,eR.jpg,,,249351.30000000005,249350.80000000005,245798.1000000001,245799.1000000001,245533.922,249100.446,
空白時間1 (0.5秒),canvas.Screen,11_7_0,2023-01-08T09:46:30.067Z,,,d,,,90,249.9899999999907,timeout,eR.jpg,,,249606.40000000014,249606.30000000005,249350.80000000005,249351.40000000014,249100.446,249350.436,
注視(1秒),canvas.Screen,11_7_1,2023-01-08T09:46:30.816Z,,,d,,,90,749.9700000000012,timeout,eR.jpg,,,250355.30000000005,250355,249606.30000000005,249606.6000000001,249350.436,250100.406,
空白時間2 (0.5秒),canvas.Screen,11_7_2,2023-01-08T09:46:31.066Z,,,d,,,90,249.9900000000198,timeout,eR.jpg,,,250605.30000000005,250605,250355,250355.40000000014,250100.406,250350.396,
刺激提示,canvas.Screen,11_7_3,2023-01-08T09:46:33.730Z,,,d,true,d,90,2915.3039999999455,response,eR.jpg,d,keypress(j),253269.30000000005,253265.69999999995,250605,250605.40000000014,250350.396,253050.288,
フィードバック(0.5秒),canvas.Screen,11_7_4,2023-01-08T09:46:34.009Z,,,d,,,90,233.32399999999325,timeout,eR.jpg,,,253548.6000000001,253548.40000000014,253033.622,253283.5,253050.288,253283.612,
トライアル,flow.Sequence,11_7,2023-01-08T09:46:34.010Z,,,d,,,90,4447.954000000143,completion,eR.jpg,,,253548.90000000014,253548.40000000014,249350.80000000005,249351.40000000014,249100.446,253283.612,
空白時間1 (0.5秒),canvas.Screen,11_8_0,2023-01-08T09:46:34.240Z,,,d,,,135,233.32399999999325,timeout,eR.jpg,,,253779.6000000001,253779.40000000014,253548.40000000014,253549.30000000005,253283.612,253516.936,
注視(1秒),canvas.Screen,11_8_1,2023-01-08T09:46:34.984Z,,,d,,,135,749.9700000000012,timeout,eR.jpg,,,254523.1000000001,254522.90000000014,253779.40000000014,253779.80000000005,253516.936,254266.906,
空白時間2 (0.5秒),canvas.Screen,11_8_2,2023-01-08T09:46:35.234Z,,,d,,,135,249.9900000000198,timeout,eR.jpg,,,254773.5,254773.1000000001,254522.90000000014,254523.30000000005,254266.906,254516.896,
刺激提示,canvas.Screen,11_8_3,2023-01-08T09:46:37.288Z,,,d,true,d,135,2306.3039999999455,response,eR.jpg,d,keypress(j),256827.19999999995,256823.19999999995,254773.1000000001,254773.80000000005,254516.896,256600.146,
フィードバック(0.5秒),canvas.Screen,11_8_4,2023-01-08T09:46:37.569Z,,,d,,,135,256.91499999997905,timeout,eR.jpg,,,257108.19999999995,257107.90000000014,256583.48,256840.69999999995,256600.146,256857.061,
トライアル,flow.Sequence,11_8,2023-01-08T09:46:37.569Z,,,d,,,135,3824.288000000146,completion,eR.jpg,,,257108.6000000001,257107.90000000014,253548.40000000014,253549.19999999995,253283.612,256857.061,
空白時間1 (0.5秒),canvas.Screen,11_9_0,2023-01-08T09:46:37.827Z,,,b,,,0,249.9900000000198,timeout,e.jpg,,,257366.40000000014,257366,257107.90000000014,257108.80000000005,256857.061,257107.051,
注視(1秒),canvas.Screen,11_9_1,2023-01-08T09:46:38.572Z,,,b,,,0,749.9700000000012,timeout,e.jpg,,,258111.5,258111.1000000001,257366,257366.6000000001,257107.051,257857.021,
空白時間2 (0.5秒),canvas.Screen,11_9_2,2023-01-08T09:46:38.817Z,,,b,,,0,249.9899999999907,timeout,e.jpg,,,258355.90000000014,258355.5,258111.1000000001,258111.69999999995,257857.021,258107.011,
刺激提示,canvas.Screen,11_9_3,2023-01-08T09:46:40.091Z,,,b,true,b,0,1519.1889999999548,response,e.jpg,b,keypress(f),259629.80000000005,259626.19999999995,258355.5,258356,258107.011,259406.959,
フィードバック(0.5秒),canvas.Screen,11_9_4,2023-01-08T09:46:40.372Z,,,b,,,0,249.9899999999907,timeout,e.jpg,,,259910.69999999995,259910.5,259390.293,259631.19999999995,259406.959,259656.949,
トライアル,flow.Sequence,11_9,2023-01-08T09:46:40.372Z,,,b,,,0,3053.439000000013,completion,e.jpg,,,259910.90000000014,259910.5,257107.90000000014,257108.80000000005,256857.061,259656.949,
空白時間1 (0.5秒),canvas.Screen,11_10_0,2023-01-08T09:46:40.627Z,,,d,,,225,249.9900000000198,timeout,eR.jpg,,,260165.80000000005,260165.5,259910.5,259911,259656.949,259906.939,
注視(1秒),canvas.Screen,11_10_1,2023-01-08T09:46:41.370Z,,,d,,,225,749.9700000000012,timeout,eR.jpg,,,260908.90000000014,260908.6000000001,260165.5,260166.1000000001,259906.939,260656.909,
空白時間2 (0.5秒),canvas.Screen,11_10_2,2023-01-08T09:46:41.625Z,,,d,,,225,249.9899999999907,timeout,eR.jpg,,,261164.30000000005,261164,260908.6000000001,260909.1000000001,260656.909,260906.899,
刺激提示,canvas.Screen,11_10_3,2023-01-08T09:46:42.742Z,,,d,true,d,225,1370.3009999999485,response,eR.jpg,d,keypress(j),262280.80000000005,262277.19999999995,261164,261164.5,260906.899,262056.853,
フィードバック(0.5秒),canvas.Screen,11_10_4,2023-01-08T09:46:43.019Z,,,d,,,225,249.9899999999907,timeout,eR.jpg,,,262557.80000000005,262557.40000000014,262040.187,262293.6000000001,262056.853,262306.843,
トライアル,flow.Sequence,11_10,2023-01-08T09:46:43.019Z,,,d,,,225,2900.4510000001465,completion,eR.jpg,,,262558,262557.40000000014,259910.5,259911,259656.949,262306.843,
空白時間1 (0.5秒),canvas.Screen,11_11_0,2023-01-08T09:46:43.274Z,,,b,,,315,249.9899999999907,timeout,e.jpg,,,262813.5,262813.19999999995,262557.40000000014,262558.1000000001,262306.843,262556.833,
注視(1秒),canvas.Screen,11_11_1,2023-01-08T09:46:44.019Z,,,b,,,315,749.9700000000303,timeout,e.jpg,,,263557.6000000001,263557.40000000014,262813.19999999995,262813.80000000005,262556.833,263306.803,
空白時間2 (0.5秒),canvas.Screen,11_11_2,2023-01-08T09:46:44.284Z,,,b,,,315,249.9899999999907,timeout,e.jpg,,,263822.69999999995,263822.5,263557.40000000014,263557.69999999995,263306.803,263556.793,
刺激提示,canvas.Screen,11_11_3,2023-01-08T09:46:46.032Z,,,b,true,b,315,2009.2069999999949,response,e.jpg,b,keypress(f),265570.5,265566,263822.5,263822.90000000014,263556.793,265323.389,
フィードバック(0.5秒),canvas.Screen,11_11_4,2023-01-08T09:46:46.291Z,,,b,,,315,249.9899999999907,timeout,e.jpg,,,265829.69999999995,265829.5,265306.723,265571.40000000014,265323.389,265573.379,
トライアル,flow.Sequence,11_11,2023-01-08T09:46:46.291Z,,,b,,,315,3522.6570000000065,completion,e.jpg,,,265829.90000000014,265829.5,262557.40000000014,262558.1000000001,262306.843,265573.379,
空白時間1 (0.5秒),canvas.Screen,11_12_0,2023-01-08T09:46:46.530Z,,,b,,,45,233.32399999996414,timeout,e.jpg,,,266069.19999999995,266069.1000000001,265829.5,265829.90000000014,265573.379,265806.703,
注視(1秒),canvas.Screen,11_12_1,2023-01-08T09:46:47.274Z,,,b,,,45,749.9700000000303,timeout,e.jpg,,,266812.90000000014,266812.69999999995,266069.1000000001,266069.6000000001,265806.703,266556.673,
空白時間2 (0.5秒),canvas.Screen,11_12_2,2023-01-08T09:46:47.524Z,,,b,,,45,249.9899999999907,timeout,e.jpg,,,267062.80000000005,267062.5,266812.69999999995,266813.1000000001,266556.673,266806.663,
刺激提示,canvas.Screen,11_12_3,2023-01-08T09:46:48.325Z,,,b,true,b,45,1052.4370000000927,response,e.jpg,b,keypress(f),267863.69999999995,267859.1000000001,267062.5,267063.1000000001,266806.663,267629.282,
フィードバック(0.5秒),canvas.Screen,11_12_4,2023-01-08T09:46:48.592Z,,,b,,,45,249.9899999999907,timeout,e.jpg,,,268130.90000000014,268130.69999999995,267612.616,267865.6000000001,267629.282,267879.272,
トライアル,flow.Sequence,11_12,2023-01-08T09:46:48.592Z,,,b,,,45,2557.320999999938,completion,e.jpg,,,268131.19999999995,268130.69999999995,265829.5,265829.90000000014,265573.379,267879.272,
空白時間1 (0.5秒),canvas.Screen,11_13_0,2023-01-08T09:46:48.841Z,,,b,,,90,249.9899999999907,timeout,e.jpg,,,268379.90000000014,268379.6000000001,268130.69999999995,268131.30000000005,267879.272,268129.262,
注視(1秒),canvas.Screen,11_13_1,2023-01-08T09:46:49.584Z,,,b,,,90,733.3040000000037,timeout,e.jpg,,,269123,269122.69999999995,268379.6000000001,268380.30000000005,268129.262,268862.566,
空白時間2 (0.5秒),canvas.Screen,11_13_2,2023-01-08T09:46:49.824Z,,,b,,,90,249.9899999999907,timeout,e.jpg,,,269363.19999999995,269362.69999999995,269122.69999999995,269123.19999999995,268862.566,269112.556,
刺激提示,canvas.Screen,11_13_3,2023-01-08T09:46:50.542Z,,,b,true,b,90,961.6439999999711,response,e.jpg,b,keypress(f),270080.80000000005,270074.19999999995,269362.69999999995,269363.40000000014,269112.556,269862.526,
フィードバック(0.5秒),canvas.Screen,11_13_4,2023-01-08T09:46:50.832Z,,,b,,,90,249.9899999999907,timeout,e.jpg,,,270371.30000000005,270371,269845.86,270097.80000000005,269862.526,270112.516,
トライアル,flow.Sequence,11_13,2023-01-08T09:46:50.833Z,,,b,,,90,2491.728000000003,completion,e.jpg,,,270371.6000000001,270371,268130.69999999995,268131.19999999995,267879.272,270112.516,
空白時間1 (0.5秒),canvas.Screen,11_14_0,2023-01-08T09:46:51.082Z,,,b,,,270,249.9899999999907,timeout,e.jpg,,,270620.6000000001,270620.30000000005,270371,270371.90000000014,270112.516,270362.506,
注視(1秒),canvas.Screen,11_14_1,2023-01-08T09:46:51.826Z,,,b,,,270,749.9700000000303,timeout,e.jpg,,,271364.40000000014,271364.1000000001,270620.30000000005,270620.69999999995,270362.506,271112.476,
空白時間2 (0.5秒),canvas.Screen,11_14_2,2023-01-08T09:46:52.080Z,,,b,,,270,249.9899999999907,timeout,e.jpg,,,271619.30000000005,271619,271364.1000000001,271364.69999999995,271112.476,271362.466,
刺激提示,canvas.Screen,11_14_3,2023-01-08T09:46:53.196Z,,,b,false,b,270,1367.533999999985,response,e.jpg,d,keypress(j),272734.80000000005,272730,271619,271619.5,271362.466,272495.754,
フィードバック(0.5秒),canvas.Screen,11_14_4,2023-01-08T09:46:53.456Z,,,b,,,270,233.32399999996414,timeout,e.jpg,,,272994.80000000005,272994.40000000014,272479.088,272737.19999999995,272495.754,272729.078,
トライアル,flow.Sequence,11_14,2023-01-08T09:46:53.456Z,,,b,,,270,2881.8840000001364,completion,e.jpg,,,272995,272994.40000000014,270371,270371.80000000005,270112.516,272729.078,
空白時間1 (0.5秒),canvas.Screen,11_15_0,2023-01-08T09:46:53.700Z,,,b,,,225,249.9900000000489,timeout,e.jpg,,,273238.5,273238.30000000005,272994.40000000014,272995.1000000001,272729.078,272979.068,
注視(1秒),canvas.Screen,11_15_1,2023-01-08T09:46:54.443Z,,,b,,,225,749.9699999999721,timeout,e.jpg,,,273981.80000000005,273981.6000000001,273238.30000000005,273238.69999999995,272979.068,273729.038,
空白時間2 (0.5秒),canvas.Screen,11_15_2,2023-01-08T09:46:54.691Z,,,b,,,225,249.9899999999907,timeout,e.jpg,,,274229.69999999995,274229.40000000014,273981.6000000001,273982,273729.038,273979.028,
刺激提示,canvas.Screen,11_15_3,2023-01-08T09:46:55.810Z,,,b,true,b,225,1365.7720000000554,response,e.jpg,b,keypress(f),275349.19999999995,275344.80000000005,274229.40000000014,274229.80000000005,273979.028,275128.982,
フィードバック(0.5秒),canvas.Screen,11_15_4,2023-01-08T09:46:56.092Z,,,b,,,225,249.9899999999907,timeout,e.jpg,,,275630.5,275630.19999999995,275112.316,275351,275128.982,275378.972,
トライアル,flow.Sequence,11_15,2023-01-08T09:46:56.092Z,,,b,,,225,2901.121999999974,completion,e.jpg,,,275630.90000000014,275630.19999999995,272994.40000000014,272995.1000000001,272729.078,275378.972,
タスクのセット,flow.Loop,11,2023-01-08T09:46:56.092Z,,,,,,,49262.29199999996,completion,,,,275631,275630.19999999995,226630.1000000001,226630.6000000001,226367.908,275378.972,
空白時間1 (0.5秒),canvas.Screen,12_0_0,2023-01-08T09:46:56.347Z,,,b,,,270,249.9899999999907,timeout,e.jpg,,,275885.6000000001,275885.5,275630.19999999995,275631.19999999995,275378.972,275628.962,
注視(1秒),canvas.Screen,12_0_1,2023-01-08T09:46:57.090Z,,,b,,,270,749.9699999999721,timeout,e.jpg,,,276628.5,276628.30000000005,275885.5,275885.90000000014,275628.962,276378.932,
空白時間2 (0.5秒),canvas.Screen,12_0_2,2023-01-08T09:46:57.345Z,,,b,,,270,249.9900000000489,timeout,e.jpg,,,276884,276883.80000000005,276628.30000000005,276628.6000000001,276378.932,276628.922,
刺激提示,canvas.Screen,12_0_3,2023-01-08T09:46:57.913Z,,,b,true,b,270,816.9780000001192,response,e.jpg,b,keypress(f),277451.80000000005,277445.90000000014,276883.80000000005,276884.19999999995,276628.922,277228.898,
フィードバック(0.5秒),canvas.Screen,12_0_4,2023-01-08T09:46:58.184Z,,,b,,,270,239.52700000000186,timeout,e.jpg,,,277722.69999999995,277722.40000000014,277212.232,277454,277228.898,277468.425,
トライアル,flow.Sequence,12_0,2023-01-08T09:46:58.184Z,,,b,,,270,2343.428000000131,completion,e.jpg,,,277722.90000000014,277722.40000000014,275630.19999999995,275631.1000000001,275378.972,277468.425,
空白時間1 (0.5秒),canvas.Screen,12_1_0,2023-01-08T09:46:58.433Z,,,d,,,90,249.9899999999907,timeout,eR.jpg,,,277971.19999999995,277970.90000000014,277722.40000000014,277723.1000000001,277468.425,277718.415,
注視(1秒),canvas.Screen,12_1_1,2023-01-08T09:46:59.186Z,,,d,,,90,749.9700000000303,timeout,eR.jpg,,,278724.6000000001,278724.19999999995,277970.90000000014,277971.40000000014,277718.415,278468.385,
空白時間2 (0.5秒),canvas.Screen,12_1_2,2023-01-08T09:46:59.435Z,,,d,,,90,249.9899999999907,timeout,eR.jpg,,,278974,278973.80000000005,278724.19999999995,278724.90000000014,278468.385,278718.375,
刺激提示,canvas.Screen,12_1_3,2023-01-08T09:47:00.605Z,,,d,true,d,90,1420.3249999999534,response,eR.jpg,d,keypress(j),280143.90000000014,280138.69999999995,278973.80000000005,278974.1000000001,278718.375,279918.327,
フィードバック(0.5秒),canvas.Screen,12_1_4,2023-01-08T09:47:00.875Z,,,d,,,90,233.32400000002235,timeout,eR.jpg,,,280413.5,280413.30000000005,279901.661,280156.1000000001,279918.327,280151.651,
トライアル,flow.Sequence,12_1,2023-01-08T09:47:00.875Z,,,d,,,90,2944.875000000058,completion,eR.jpg,,,280413.69999999995,280413.30000000005,277722.40000000014,277723.1000000001,277468.425,280151.651,
空白時間1 (0.5秒),canvas.Screen,12_2_0,2023-01-08T09:47:01.120Z,,,d,,,225,249.9899999999907,timeout,eR.jpg,,,280658.69999999995,280658.6000000001,280413.30000000005,280413.80000000005,280151.651,280401.641,
注視(1秒),canvas.Screen,12_2_1,2023-01-08T09:47:01.868Z,,,d,,,225,766.6359999999986,timeout,eR.jpg,,,281407,281406.6000000001,280658.6000000001,280658.80000000005,280401.641,281168.277,
空白時間2 (0.5秒),canvas.Screen,12_2_2,2023-01-08T09:47:02.141Z,,,d,,,225,249.9899999999907,timeout,eR.jpg,,,281679.69999999995,281679.30000000005,281406.6000000001,281407.30000000005,281168.277,281418.267,
刺激提示,canvas.Screen,12_2_3,2023-01-08T09:47:03.708Z,,,d,true,d,225,1824.4329999999609,response,eR.jpg,d,keypress(j),283247,283242.69999999995,281679.30000000005,281680.19999999995,281418.267,283034.869,
フィードバック(0.5秒),canvas.Screen,12_2_4,2023-01-08T09:47:03.993Z,,,d,,,225,233.32400000002235,timeout,eR.jpg,,,283531,283530.69999999995,283018.203,283248.5,283034.869,283268.193,
トライアル,flow.Sequence,12_2,2023-01-08T09:47:03.993Z,,,d,,,225,3379.048999999941,completion,eR.jpg,,,283531.6000000001,283530.69999999995,280413.30000000005,280413.80000000005,280151.651,283268.193,
空白時間1 (0.5秒),canvas.Screen,12_3_0,2023-01-08T09:47:04.232Z,,,d,,,180,249.9899999999907,timeout,eR.jpg,,,283770.80000000005,283770.6000000001,283530.69999999995,283531.69999999995,283268.193,283518.183,
注視(1秒),canvas.Screen,12_3_1,2023-01-08T09:47:04.985Z,,,d,,,180,749.9699999999721,timeout,eR.jpg,,,284523.69999999995,284523.40000000014,283770.6000000001,283771,283518.183,284268.153,
空白時間2 (0.5秒),canvas.Screen,12_3_2,2023-01-08T09:47:05.234Z,,,d,,,180,249.9899999999907,timeout,eR.jpg,,,284773,284772.69999999995,284523.40000000014,284523.90000000014,284268.153,284518.143,
刺激提示,canvas.Screen,12_3_3,2023-01-08T09:47:06.639Z,,,d,true,d,180,1656.3570000000182,response,eR.jpg,d,keypress(j),286177.90000000014,286174.5,284772.69999999995,284773.1000000001,284518.143,285968.085,
フィードバック(0.5秒),canvas.Screen,12_3_4,2023-01-08T09:47:06.929Z,,,d,,,180,249.9899999999907,timeout,eR.jpg,,,286467.69999999995,286467.19999999995,285951.419,286191.40000000014,285968.085,286218.075,
トライアル,flow.Sequence,12_3,2023-01-08T09:47:06.930Z,,,d,,,180,3199.006999999925,completion,eR.jpg,,,286468.1000000001,286467.19999999995,283530.69999999995,283531.69999999995,283268.193,286218.075,
空白時間1 (0.5秒),canvas.Screen,12_4_0,2023-01-08T09:47:07.186Z,,,d,,,45,249.9899999999907,timeout,eR.jpg,,,286724.1000000001,286723.69999999995,286467.19999999995,286468.30000000005,286218.075,286468.065,
注視(1秒),canvas.Screen,12_4_1,2023-01-08T09:47:07.931Z,,,d,,,45,749.9699999999721,timeout,eR.jpg,,,287469.69999999995,287469.5,286723.69999999995,286724.40000000014,286468.065,287218.035,
空白時間2 (0.5秒),canvas.Screen,12_4_2,2023-01-08T09:47:08.185Z,,,d,,,45,249.9900000000489,timeout,eR.jpg,,,287723.90000000014,287723.5,287469.5,287469.80000000005,287218.035,287468.025,
刺激提示,canvas.Screen,12_4_3,2023-01-08T09:47:09.641Z,,,d,true,d,45,1704.5750000000698,response,eR.jpg,d,keypress(j),289179.6000000001,289172.6000000001,287723.5,287724.19999999995,287468.025,288934.633,
フィードバック(0.5秒),canvas.Screen,12_4_4,2023-01-08T09:47:09.906Z,,,d,,,45,249.9900000000489,timeout,eR.jpg,,,289444,289443.69999999995,288917.967,289181.90000000014,288934.633,289184.623,
トライアル,flow.Sequence,12_4,2023-01-08T09:47:09.906Z,,,d,,,45,3225.624999999942,completion,eR.jpg,,,289444.30000000005,289443.69999999995,286467.19999999995,286468.19999999995,286218.075,289184.623,
空白時間1 (0.5秒),canvas.Screen,12_5_0,2023-01-08T09:47:10.152Z,,,b,,,90,249.9899999999907,timeout,e.jpg,,,289690.80000000005,289690.6000000001,289443.69999999995,289444.5,289184.623,289434.613,
注視(1秒),canvas.Screen,12_5_1,2023-01-08T09:47:10.889Z,,,b,,,90,733.3040000000037,timeout,e.jpg,,,290426.90000000014,290426.69999999995,289690.6000000001,289690.90000000014,289434.613,290167.917,
空白時間2 (0.5秒),canvas.Screen,12_5_2,2023-01-08T09:47:11.138Z,,,b,,,90,249.9899999999907,timeout,e.jpg,,,290676.80000000005,290676.5,290426.69999999995,290427.19999999995,290167.917,290417.907,
刺激提示,canvas.Screen,12_5_3,2023-01-08T09:47:11.986Z,,,b,true,b,90,1102.5929999999935,response,e.jpg,b,keypress(f),291524.80000000005,291520.5,290676.5,290677,290417.907,291284.539,
フィードバック(0.5秒),canvas.Screen,12_5_4,2023-01-08T09:47:12.249Z,,,b,,,90,249.9899999999907,timeout,e.jpg,,,291787,291786.6000000001,291267.873,291525.90000000014,291284.539,291534.529,
トライアル,flow.Sequence,12_5,2023-01-08T09:47:12.249Z,,,b,,,90,2601.9770000000717,completion,e.jpg,,,291787.19999999995,291786.6000000001,289443.69999999995,289444.40000000014,289184.623,291534.529,
空白時間1 (0.5秒),canvas.Screen,12_6_0,2023-01-08T09:47:12.497Z,,,b,,,45,249.9899999999907,timeout,e.jpg,,,292035,292034.69999999995,291786.6000000001,291787.30000000005,291534.529,291784.519,
注視(1秒),canvas.Screen,12_6_1,2023-01-08T09:47:13.242Z,,,b,,,45,733.3040000000037,timeout,e.jpg,,,292779.90000000014,292779.69999999995,292034.69999999995,292035.1000000001,291784.519,292517.823,
空白時間2 (0.5秒),canvas.Screen,12_6_2,2023-01-08T09:47:13.484Z,,,b,,,45,249.9900000000489,timeout,e.jpg,,,293022.1000000001,293021.80000000005,292779.69999999995,292780,292517.823,292767.813,
刺激提示,canvas.Screen,12_6_3,2023-01-08T09:47:14.668Z,,,b,true,b,45,1433.7870000000694,response,e.jpg,b,keypress(f),294206.1000000001,294201.6000000001,293021.80000000005,293022.19999999995,292767.813,293984.431,
フィードバック(0.5秒),canvas.Screen,12_6_4,2023-01-08T09:47:14.947Z,,,b,,,45,249.9899999999907,timeout,e.jpg,,,294484.80000000005,294484.5,293967.765,294224,293984.431,294234.421,
トライアル,flow.Sequence,12_6,2023-01-08T09:47:14.947Z,,,b,,,45,2949.9710000000196,completion,e.jpg,,,294485,294484.5,291786.6000000001,291787.30000000005,291534.529,294234.421,
空白時間1 (0.5秒),canvas.Screen,12_7_0,2023-01-08T09:47:15.202Z,,,b,,,315,249.9900000000489,timeout,e.jpg,,,294740.40000000014,294740.1000000001,294484.5,294485.19999999995,294234.421,294484.411,
注視(1秒),canvas.Screen,12_7_1,2023-01-08T09:47:15.945Z,,,b,,,315,733.3040000000037,timeout,e.jpg,,,295483.5,295483.19999999995,294740.1000000001,294740.5,294484.411,295217.715,
空白時間2 (0.5秒),canvas.Screen,12_7_2,2023-01-08T09:47:16.189Z,,,b,,,315,249.9899999999907,timeout,e.jpg,,,295727.5,295727.30000000005,295483.19999999995,295483.6000000001,295217.715,295467.705,
刺激提示,canvas.Screen,12_7_3,2023-01-08T09:47:16.755Z,,,b,true,b,315,821.6950000001234,response,e.jpg,b,keypress(f),296293.40000000014,296289.40000000014,295727.30000000005,295727.69999999995,295467.705,296051.015,
フィードバック(0.5秒),canvas.Screen,12_7_4,2023-01-08T09:47:17.019Z,,,b,,,315,249.9899999999907,timeout,e.jpg,,,296557.30000000005,296557,296034.349,296294.90000000014,296051.015,296301.005,
トライアル,flow.Sequence,12_7,2023-01-08T09:47:17.019Z,,,b,,,315,2322.579000000027,completion,e.jpg,,,296557.5,296557,294484.5,294485.1000000001,294234.421,296301.005,
空白時間1 (0.5秒),canvas.Screen,12_8_0,2023-01-08T09:47:17.265Z,,,d,,,0,249.9899999999907,timeout,eR.jpg,,,296802.80000000005,296802.5,296557,296557.69999999995,296301.005,296550.995,
注視(1秒),canvas.Screen,12_8_1,2023-01-08T09:47:18.019Z,,,d,,,0,749.9700000000303,timeout,eR.jpg,,,297557,297555.80000000005,296802.5,296802.90000000014,296550.995,297300.965,
空白時間2 (0.5秒),canvas.Screen,12_8_2,2023-01-08T09:47:18.267Z,,,d,,,0,245.8969999999972,timeout,eR.jpg,,,297805.6000000001,297805.19999999995,297555.80000000005,297557.69999999995,297300.965,297546.862,
刺激提示,canvas.Screen,12_8_3,2023-01-08T09:47:18.928Z,,,d,true,d,0,914.5380000001169,response,eR.jpg,d,keypress(j),298466.30000000005,298461.40000000014,297805.19999999995,297805.69999999995,297546.862,298230.168,
フィードバック(0.5秒),canvas.Screen,12_8_4,2023-01-08T09:47:19.196Z,,,d,,,0,249.9899999999907,timeout,eR.jpg,,,298734.19999999995,298733.90000000014,298213.502,298468.80000000005,298230.168,298480.158,
トライアル,flow.Sequence,12_8,2023-01-08T09:47:19.196Z,,,d,,,0,2432.895000000135,completion,eR.jpg,,,298734.40000000014,298733.90000000014,296557,296557.69999999995,296301.005,298480.158,
空白時間1 (0.5秒),canvas.Screen,12_9_0,2023-01-08T09:47:19.442Z,,,d,,,270,249.9899999999907,timeout,eR.jpg,,,298979.80000000005,298979.5,298733.90000000014,298734.5,298480.158,298730.148,
注視(1秒),canvas.Screen,12_9_1,2023-01-08T09:47:20.195Z,,,d,,,270,749.9700000000303,timeout,eR.jpg,,,299732.69999999995,299732.5,298979.5,298980,298730.148,299480.118,
空白時間2 (0.5秒),canvas.Screen,12_9_2,2023-01-08T09:47:20.445Z,,,d,,,270,249.9899999999907,timeout,eR.jpg,,,299982.69999999995,299982.5,299732.5,299732.90000000014,299480.118,299730.108,
刺激提示,canvas.Screen,12_9_3,2023-01-08T09:47:21.645Z,,,d,true,d,270,1447.4920000000857,response,eR.jpg,d,keypress(j),301183.1000000001,301177.6000000001,299982.5,299983,299730.108,300946.726,
フィードバック(0.5秒),canvas.Screen,12_9_4,2023-01-08T09:47:21.907Z,,,d,,,270,233.32399999996414,timeout,eR.jpg,,,301445.30000000005,301444.90000000014,300930.06,301185.30000000005,300946.726,301180.05,
トライアル,flow.Sequence,12_9,2023-01-08T09:47:21.908Z,,,d,,,270,2964.742000000144,completion,eR.jpg,,,301445.90000000014,301444.90000000014,298733.90000000014,298734.5,298480.158,301180.05,
空白時間1 (0.5秒),canvas.Screen,12_10_0,2023-01-08T09:47:22.157Z,,,d,,,135,249.9899999999907,timeout,eR.jpg,,,301695,301694.80000000005,301444.90000000014,301446.1000000001,301180.05,301430.04,
注視(1秒),canvas.Screen,12_10_1,2023-01-08T09:47:22.901Z,,,d,,,135,749.9700000000303,timeout,eR.jpg,,,302438.6000000001,302438.19999999995,301694.80000000005,301695.30000000005,301430.04,302180.01,
空白時間2 (0.5秒),canvas.Screen,12_10_2,2023-01-08T09:47:23.145Z,,,d,,,135,249.9899999999907,timeout,eR.jpg,,,302683.40000000014,302683.1000000001,302438.19999999995,302438.90000000014,302180.01,302430,
刺激提示,canvas.Screen,12_10_3,2023-01-08T09:47:25.299Z,,,d,true,d,135,2400.1999999999534,response,eR.jpg,d,keypress(j),304836.80000000005,304830.19999999995,302683.1000000001,302683.69999999995,302430,304629.912,
フィードバック(0.5秒),canvas.Screen,12_10_4,2023-01-08T09:47:25.588Z,,,d,,,135,233.32399999996414,timeout,eR.jpg,,,305126.19999999995,305125.69999999995,304613.246,304855.6000000001,304629.912,304863.236,
トライアル,flow.Sequence,12_10,2023-01-08T09:47:25.589Z,,,d,,,135,3945.649999999965,completion,eR.jpg,,,305127.1000000001,305125.69999999995,301444.90000000014,301446,301180.05,304863.236,
空白時間1 (0.5秒),canvas.Screen,12_11_0,2023-01-08T09:47:25.838Z,,,b,,,135,249.9900000000489,timeout,e.jpg,,,305375.6000000001,305374.90000000014,305125.69999999995,305127.40000000014,304863.236,305113.226,
注視(1秒),canvas.Screen,12_11_1,2023-01-08T09:47:26.581Z,,,b,,,135,749.9699999999721,timeout,e.jpg,,,306118.80000000005,306118.40000000014,305374.90000000014,305375.69999999995,305113.226,305863.196,
空白時間2 (0.5秒),canvas.Screen,12_11_2,2023-01-08T09:47:26.830Z,,,b,,,135,249.9899999999907,timeout,e.jpg,,,306367.69999999995,306367.19999999995,306118.40000000014,306119,305863.196,306113.186,
刺激提示,canvas.Screen,12_11_3,2023-01-08T09:47:28.249Z,,,b,true,b,135,1669.9140000001062,response,e.jpg,b,keypress(f),307786.80000000005,307783.1000000001,306367.19999999995,306367.90000000014,306113.186,307546.462,
フィードバック(0.5秒),canvas.Screen,12_11_4,2023-01-08T09:47:28.513Z,,,b,,,135,241.35399999999208,timeout,e.jpg,,,308051.19999999995,308051,307529.796,307788,307546.462,307787.816,
トライアル,flow.Sequence,12_11,2023-01-08T09:47:28.514Z,,,b,,,135,3187.7640000000247,completion,e.jpg,,,308051.5,308051,305125.69999999995,305127.30000000005,304863.236,307787.816,
空白時間1 (0.5秒),canvas.Screen,12_12_0,2023-01-08T09:47:28.745Z,,,b,,,0,233.32400000002235,timeout,e.jpg,,,308283.40000000014,308283.1000000001,308051,308051.6000000001,307787.816,308021.14,
注視(1秒),canvas.Screen,12_12_1,2023-01-08T09:47:29.483Z,,,b,,,0,749.9699999999721,timeout,e.jpg,,,309020.80000000005,309020.5,308283.1000000001,308283.6000000001,308021.14,308771.11,
空白時間2 (0.5秒),canvas.Screen,12_12_2,2023-01-08T09:47:29.745Z,,,b,,,0,249.9899999999907,timeout,e.jpg,,,309282.90000000014,309282.6000000001,309020.5,309020.90000000014,308771.11,309021.1,
刺激提示,canvas.Screen,12_12_3,2023-01-08T09:47:30.548Z,,,b,true,b,0,1061.9000000000233,response,e.jpg,b,keypress(f),310086.19999999995,310083,309282.6000000001,309283.19999999995,309021.1,309871.066,
フィードバック(0.5秒),canvas.Screen,12_12_4,2023-01-08T09:47:30.836Z,,,b,,,0,249.9899999999907,timeout,e.jpg,,,310374,310373.6000000001,309854.4,310087.90000000014,309871.066,310121.056,
トライアル,flow.Sequence,12_12,2023-01-08T09:47:30.836Z,,,b,,,0,2585.7840000001015,completion,e.jpg,,,310374.5,310373.6000000001,308051,308051.6000000001,307787.816,310121.056,
空白時間1 (0.5秒),canvas.Screen,12_13_0,2023-01-08T09:47:31.081Z,,,d,,,315,233.32400000002235,timeout,eR.jpg,,,310619.6000000001,310619,310373.6000000001,310374.69999999995,310121.056,310354.38,
注視(1秒),canvas.Screen,12_13_1,2023-01-08T09:47:31.815Z,,,d,,,315,749.9699999999721,timeout,eR.jpg,,,311354.80000000005,311354.6000000001,310619,310619.90000000014,310354.38,311104.35,
空白時間2 (0.5秒),canvas.Screen,12_13_2,2023-01-08T09:47:32.064Z,,,d,,,315,249.9900000000489,timeout,eR.jpg,,,311604.40000000014,311604.1000000001,311354.6000000001,311355,311104.35,311354.34,
刺激提示,canvas.Screen,12_13_3,2023-01-08T09:47:32.870Z,,,d,true,d,315,1052.6599999999744,response,eR.jpg,d,keypress(j),312411,312407,311604.1000000001,311604.5,311354.34,312204.306,
フィードバック(0.5秒),canvas.Screen,12_13_4,2023-01-08T09:47:33.165Z,,,d,,,315,249.9899999999907,timeout,eR.jpg,,,312706.80000000005,312706.6000000001,312187.64,312425.40000000014,312204.306,312454.296,
トライアル,flow.Sequence,12_13,2023-01-08T09:47:33.165Z,,,d,,,315,2585.544000000111,completion,eR.jpg,,,312707.1000000001,312706.6000000001,310373.6000000001,310374.69999999995,310121.056,312454.296,
空白時間1 (0.5秒),canvas.Screen,12_14_0,2023-01-08T09:47:33.414Z,,,b,,,180,249.9900000000489,timeout,e.jpg,,,312956.30000000005,312956,312706.6000000001,312707.19999999995,312454.296,312704.286,
注視(1秒),canvas.Screen,12_14_1,2023-01-08T09:47:34.156Z,,,b,,,180,733.3040000000037,timeout,e.jpg,,,313699.40000000014,313699,312956,312956.5,312704.286,313437.59,
空白時間2 (0.5秒),canvas.Screen,12_14_2,2023-01-08T09:47:34.399Z,,,b,,,180,249.9899999999907,timeout,e.jpg,,,313942.30000000005,313941.90000000014,313699,313699.69999999995,313437.59,313687.58,
刺激提示,canvas.Screen,12_14_3,2023-01-08T09:47:35.711Z,,,b,true,b,180,1564.6199999999371,response,e.jpg,b,keypress(f),315256.1000000001,315252.19999999995,313941.90000000014,313942.6000000001,313687.58,315020.86,
フィードバック(0.5秒),canvas.Screen,12_14_4,2023-01-08T09:47:35.989Z,,,b,,,180,249.9899999999907,timeout,e.jpg,,,315534,315533.80000000005,315004.194,315257.30000000005,315020.86,315270.85,
トライアル,flow.Sequence,12_14,2023-01-08T09:47:35.989Z,,,b,,,180,3079.5040000000736,completion,e.jpg,,,315534.40000000014,315533.80000000005,312706.6000000001,312707.19999999995,312454.296,315270.85,
空白時間1 (0.5秒),canvas.Screen,12_15_0,2023-01-08T09:47:36.233Z,,,b,,,225,249.9900000000489,timeout,e.jpg,,,315779,315778.80000000005,315533.80000000005,315534.6000000001,315270.85,315520.84,
注視(1秒),canvas.Screen,12_15_1,2023-01-08T09:47:36.973Z,,,b,,,225,749.9699999999721,timeout,e.jpg,,,316519.80000000005,316519.40000000014,315778.80000000005,315779.19999999995,315520.84,316270.81,
空白時間2 (0.5秒),canvas.Screen,12_15_2,2023-01-08T09:47:37.224Z,,,b,,,225,249.9899999999907,timeout,e.jpg,,,316771.30000000005,316770.90000000014,316519.40000000014,316520.80000000005,316270.81,316520.8,
刺激提示,canvas.Screen,12_15_3,2023-01-08T09:47:38.385Z,,,b,true,b,225,1406.3000000001048,response,e.jpg,b,keypress(f),317932.80000000005,317927.1000000001,316770.90000000014,316771.5,316520.8,317687.42,
フィードバック(0.5秒),canvas.Screen,12_15_4,2023-01-08T09:47:38.639Z,,,b,,,225,239.9320000000298,timeout,e.jpg,,,318186.90000000014,318186.69999999995,317670.754,317935.1000000001,317687.42,317927.352,
トライアル,flow.Sequence,12_15,2023-01-08T09:47:38.639Z,,,b,,,225,2915.8499999999767,completion,e.jpg,,,318187.19999999995,318186.69999999995,315533.80000000005,315534.5,315270.85,317927.352,
タスクのセット,flow.Loop,12,2023-01-08T09:47:38.639Z,,,,,,,42807.727999999945,completion,,,,318187.30000000005,318186.69999999995,275630.19999999995,275631,275378.972,317927.352,
空白時間1 (0.5秒),canvas.Screen,13_0_0,2023-01-08T09:47:38.883Z,,,d,,,315,249.9899999999907,timeout,eR.jpg,,,318431,318430.6000000001,318186.69999999995,318187.5,317927.352,318177.342,
注視(1秒),canvas.Screen,13_0_1,2023-01-08T09:47:39.634Z,,,d,,,315,749.9699999999721,timeout,eR.jpg,,,319183.40000000014,319183.19999999995,318430.6000000001,318431.30000000005,318177.342,318927.312,
空白時間2 (0.5秒),canvas.Screen,13_0_2,2023-01-08T09:47:39.886Z,,,d,,,315,249.9900000000489,timeout,eR.jpg,,,319435.19999999995,319434.80000000005,319183.19999999995,319183.6000000001,318927.312,319177.302,
刺激提示,canvas.Screen,13_0_3,2023-01-08T09:47:40.752Z,,,d,true,d,315,1120.5980000001146,response,eR.jpg,d,keypress(j),320301.80000000005,320297.90000000014,319434.80000000005,319435.5,319177.302,320077.266,
フィードバック(0.5秒),canvas.Screen,13_0_4,2023-01-08T09:47:41.029Z,,,d,,,315,249.9899999999907,timeout,eR.jpg,,,320579.90000000014,320579.6000000001,320060.6,320314.80000000005,320077.266,320327.256,
トライアル,flow.Sequence,13_0,2023-01-08T09:47:41.030Z,,,d,,,315,2652.2480000000796,completion,eR.jpg,,,320580.19999999995,320579.6000000001,318186.69999999995,318187.5,317927.352,320327.256,
空白時間1 (0.5秒),canvas.Screen,13_1_0,2023-01-08T09:47:41.289Z,,,d,,,225,249.9899999999907,timeout,eR.jpg,,,320839.19999999995,320839,320579.6000000001,320580.40000000014,320327.256,320577.246,
注視(1秒),canvas.Screen,13_1_1,2023-01-08T09:47:42.020Z,,,d,,,225,733.3040000000037,timeout,eR.jpg,,,321570.80000000005,321570.6000000001,320839,320839.6000000001,320577.246,321310.55,
空白時間2 (0.5秒),canvas.Screen,13_1_2,2023-01-08T09:47:42.270Z,,,d,,,225,249.9899999999907,timeout,eR.jpg,,,321821.30000000005,321820.90000000014,321570.6000000001,321570.90000000014,321310.55,321560.54,
刺激提示,canvas.Screen,13_1_3,2023-01-08T09:47:43.778Z,,,d,true,d,225,1765.2600000000675,response,eR.jpg,d,keypress(j),323330.40000000014,323325.80000000005,321820.90000000014,321821.5,321560.54,323110.478,
フィードバック(0.5秒),canvas.Screen,13_1_4,2023-01-08T09:47:44.059Z,,,d,,,225,249.9899999999907,timeout,eR.jpg,,,323611.5,323611.19999999995,323093.812,323331.90000000014,323110.478,323360.468,
トライアル,flow.Sequence,13_1,2023-01-08T09:47:44.059Z,,,d,,,225,3283.9439999999595,completion,eR.jpg,,,323611.69999999995,323611.19999999995,320579.6000000001,320580.30000000005,320327.256,323360.468,
空白時間1 (0.5秒),canvas.Screen,13_2_0,2023-01-08T09:47:44.308Z,,,d,,,135,249.9899999999907,timeout,eR.jpg,,,323861.1000000001,323860.90000000014,323611.19999999995,323611.80000000005,323360.468,323610.458,
注視(1秒),canvas.Screen,13_2_1,2023-01-08T09:47:45.059Z,,,d,,,135,749.9700000000303,timeout,eR.jpg,,,324612.69999999995,324612.40000000014,323860.90000000014,323861.19999999995,323610.458,324360.428,
空白時間2 (0.5秒),canvas.Screen,13_2_2,2023-01-08T09:47:45.309Z,,,d,,,135,249.9899999999907,timeout,eR.jpg,,,324862.19999999995,324862,324612.40000000014,324612.80000000005,324360.428,324610.418,
刺激提示,canvas.Screen,13_2_3,2023-01-08T09:47:46.831Z,,,d,true,d,135,1771.182000000088,response,eR.jpg,d,keypress(j),326385.19999999995,326381.6000000001,324862,324862.30000000005,324610.418,326160.356,
フィードバック(0.5秒),canvas.Screen,13_2_4,2023-01-08T09:47:47.108Z,,,d,,,135,249.9899999999907,timeout,eR.jpg,,,326662.30000000005,326662,326143.69,326398,326160.356,326410.346,
トライアル,flow.Sequence,13_2,2023-01-08T09:47:47.108Z,,,d,,,135,3301.5320000000065,completion,eR.jpg,,,326662.69999999995,326662,323611.19999999995,323611.80000000005,323360.468,326410.346,
空白時間1 (0.5秒),canvas.Screen,13_3_0,2023-01-08T09:47:47.352Z,,,b,,,315,233.32399999996414,timeout,e.jpg,,,326906.90000000014,326906.69999999995,326662,326662.90000000014,326410.346,326643.67,
注視(1秒),canvas.Screen,13_3_1,2023-01-08T09:47:48.088Z,,,b,,,315,733.3040000000037,timeout,e.jpg,,,327642.80000000005,327642.6000000001,326906.69999999995,326907.19999999995,326643.67,327376.974,
空白時間2 (0.5秒),canvas.Screen,13_3_2,2023-01-08T09:47:48.332Z,,,b,,,315,249.9899999999907,timeout,e.jpg,,,327887.1000000001,327886.69999999995,327642.6000000001,327643,327376.974,327626.964,
刺激提示,canvas.Screen,13_3_3,2023-01-08T09:47:49.159Z,,,b,true,b,315,1081.7359999999753,response,e.jpg,b,keypress(f),328714.69999999995,328708.69999999995,327886.69999999995,327887.30000000005,327626.964,328476.93,
フィードバック(0.5秒),canvas.Screen,13_3_4,2023-01-08T09:47:49.424Z,,,b,,,315,242.91800000000512,timeout,e.jpg,,,328979.80000000005,328979.6000000001,328460.264,328716.40000000014,328476.93,328719.848,
トライアル,flow.Sequence,13_3,2023-01-08T09:47:49.424Z,,,b,,,315,2569.2540000000736,completion,e.jpg,,,328979.90000000014,328979.6000000001,326662,326662.90000000014,326410.346,328719.848,
空白時間1 (0.5秒),canvas.Screen,13_4_0,2023-01-08T09:47:49.666Z,,,d,,,0,249.9899999999907,timeout,eR.jpg,,,329222,329221.80000000005,328979.6000000001,328980.1000000001,328719.848,328969.838,
注視(1秒),canvas.Screen,13_4_1,2023-01-08T09:47:50.415Z,,,d,,,0,749.9700000000303,timeout,eR.jpg,,,329970.6000000001,329970.40000000014,329221.80000000005,329222.30000000005,328969.838,329719.808,
空白時間2 (0.5秒),canvas.Screen,13_4_2,2023-01-08T09:47:50.664Z,,,d,,,0,249.9899999999907,timeout,eR.jpg,,,330220.6000000001,330220.19999999995,329970.40000000014,329970.90000000014,329719.808,329969.798,
刺激提示,canvas.Screen,13_4_3,2023-01-08T09:47:51.429Z,,,d,true,d,0,1011.6020000001299,response,eR.jpg,d,keypress(j),330985,330981.40000000014,330220.19999999995,330220.80000000005,329969.798,330753.1,
フィードバック(0.5秒),canvas.Screen,13_4_4,2023-01-08T09:47:51.703Z,,,d,,,0,249.9900000000489,timeout,eR.jpg,,,331259.6000000001,331259.30000000005,330736.434,330986.30000000005,330753.1,331003.09,
トライアル,flow.Sequence,13_4,2023-01-08T09:47:51.703Z,,,d,,,0,2539.4520000000484,completion,eR.jpg,,,331259.90000000014,331259.30000000005,328979.6000000001,328980,328719.848,331003.09,
空白時間1 (0.5秒),canvas.Screen,13_5_0,2023-01-08T09:47:51.952Z,,,b,,,180,249.9899999999907,timeout,e.jpg,,,331509.1000000001,331508.80000000005,331259.30000000005,331260,331003.09,331253.08,
注視(1秒),canvas.Screen,13_5_1,2023-01-08T09:47:52.707Z,,,b,,,180,749.9699999999721,timeout,e.jpg,,,332263.80000000005,332263.30000000005,331508.80000000005,331509.5,331253.08,332003.05,
空白時間2 (0.5秒),canvas.Screen,13_5_2,2023-01-08T09:47:52.962Z,,,b,,,180,266.65600000001723,timeout,e.jpg,,,332519.19999999995,332518.80000000005,332263.30000000005,332264.1000000001,332003.05,332269.706,
刺激提示,canvas.Screen,13_5_3,2023-01-08T09:47:54.116Z,,,b,true,b,180,1399.7939999999944,response,e.jpg,b,keypress(f),333673.30000000005,333669.5,332518.80000000005,332519.40000000014,332269.706,333452.992,
フィードバック(0.5秒),canvas.Screen,13_5_4,2023-01-08T09:47:54.390Z,,,b,,,180,233.32399999996414,timeout,e.jpg,,,333947.30000000005,333947,333436.326,333674.80000000005,333452.992,333686.316,
トライアル,flow.Sequence,13_5,2023-01-08T09:47:54.390Z,,,b,,,180,2943.9099999999744,completion,e.jpg,,,333947.69999999995,333947,331259.30000000005,331260,331003.09,333686.316,
空白時間1 (0.5秒),canvas.Screen,13_6_0,2023-01-08T09:47:54.629Z,,,b,,,270,266.65600000001723,timeout,e.jpg,,,334186.90000000014,334186.6000000001,333947,333947.80000000005,333686.316,333952.972,
注視(1秒),canvas.Screen,13_6_1,2023-01-08T09:47:55.399Z,,,b,,,270,749.9699999999721,timeout,e.jpg,,,334957.30000000005,334957.1000000001,334186.6000000001,334187.5,333952.972,334702.942,
空白時間2 (0.5秒),canvas.Screen,13_6_2,2023-01-08T09:47:55.649Z,,,b,,,270,249.9899999999907,timeout,e.jpg,,,335207,335206.6000000001,334957.1000000001,334957.5,334702.942,334952.932,
刺激提示,canvas.Screen,13_6_3,2023-01-08T09:47:56.448Z,,,b,true,b,270,1048.468000000168,response,e.jpg,b,keypress(f),336005.90000000014,336001.40000000014,335206.6000000001,335207.19999999995,334952.932,335786.232,
フィードバック(0.5秒),canvas.Screen,13_6_4,2023-01-08T09:47:56.734Z,,,b,,,270,249.9899999999907,timeout,e.jpg,,,336292.5,336292.30000000005,335752.9,336007.40000000014,335786.232,336036.222,
トライアル,flow.Sequence,13_6,2023-01-08T09:47:56.734Z,,,b,,,270,2605.984000000055,completion,e.jpg,,,336292.69999999995,336292.30000000005,333947,333947.80000000005,333686.316,336036.222,
空白時間1 (0.5秒),canvas.Screen,13_7_0,2023-01-08T09:47:56.984Z,,,d,,,180,249.9899999999907,timeout,eR.jpg,,,336542.40000000014,336542,336292.30000000005,336292.90000000014,336036.222,336286.212,
注視(1秒),canvas.Screen,13_7_1,2023-01-08T09:47:57.732Z,,,d,,,180,749.9699999999721,timeout,eR.jpg,,,337290.90000000014,337290.6000000001,336542,336542.80000000005,336286.212,337036.182,
空白時間2 (0.5秒),canvas.Screen,13_7_2,2023-01-08T09:47:57.982Z,,,d,,,180,249.9900000000489,timeout,eR.jpg,,,337540.5,337540.19999999995,337290.6000000001,337291,337036.182,337286.172,
刺激提示,canvas.Screen,13_7_3,2023-01-08T09:47:59.523Z,,,d,false,d,180,1791.128000000026,response,eR.jpg,b,keypress(f),339082.40000000014,339077.30000000005,337540.19999999995,337540.69999999995,337286.172,338852.776,
フィードバック(0.5秒),canvas.Screen,13_7_4,2023-01-08T09:47:59.798Z,,,d,,,180,240.32600000000093,timeout,eR.jpg,,,339357.40000000014,339357.1000000001,338836.11,339100.30000000005,338852.776,339093.102,
トライアル,flow.Sequence,13_7,2023-01-08T09:47:59.799Z,,,d,,,180,3320.8780000000843,completion,eR.jpg,,,339357.69999999995,339357.1000000001,336292.30000000005,336292.90000000014,336036.222,339093.102,
空白時間1 (0.5秒),canvas.Screen,13_8_0,2023-01-08T09:48:00.031Z,,,b,,,225,233.32399999996414,timeout,e.jpg,,,339589.80000000005,339589.5,339357.1000000001,339357.80000000005,339093.102,339326.426,
注視(1秒),canvas.Screen,13_8_1,2023-01-08T09:48:00.773Z,,,b,,,225,749.9700000000303,timeout,e.jpg,,,340332.6000000001,340332.30000000005,339589.5,339590,339326.426,340076.396,
空白時間2 (0.5秒),canvas.Screen,13_8_2,2023-01-08T09:48:01.023Z,,,b,,,225,249.9899999999907,timeout,e.jpg,,,340582.30000000005,340582.1000000001,340332.30000000005,340332.69999999995,340076.396,340326.386,
刺激提示,canvas.Screen,13_8_3,2023-01-08T09:48:01.940Z,,,b,true,b,225,1169.014000000141,response,e.jpg,b,keypress(f),341499.40000000014,341495.40000000014,340582.1000000001,340582.5,340326.386,341276.348,
フィードバック(0.5秒),canvas.Screen,13_8_4,2023-01-08T09:48:02.220Z,,,b,,,225,249.9899999999907,timeout,e.jpg,,,341779.69999999995,341779.40000000014,341259.682,341500.69999999995,341276.348,341526.338,
トライアル,flow.Sequence,13_8,2023-01-08T09:48:02.220Z,,,b,,,225,2686.298000000126,completion,e.jpg,,,341780,341779.40000000014,339357.1000000001,339357.69999999995,339093.102,341526.338,
空白時間1 (0.5秒),canvas.Screen,13_9_0,2023-01-08T09:48:02.459Z,,,d,,,270,233.32400000002235,timeout,eR.jpg,,,342018.6000000001,342018.40000000014,341779.40000000014,341780,341526.338,341759.662,
注視(1秒),canvas.Screen,13_9_1,2023-01-08T09:48:03.205Z,,,d,,,270,749.9699999999721,timeout,eR.jpg,,,342765.19999999995,342765,342018.40000000014,342018.80000000005,341759.662,342509.632,
空白時間2 (0.5秒),canvas.Screen,13_9_2,2023-01-08T09:48:03.443Z,,,d,,,270,233.32400000002235,timeout,eR.jpg,,,343002.80000000005,343002.6000000001,342765,342765.40000000014,342509.632,342742.956,
刺激提示,canvas.Screen,13_9_3,2023-01-08T09:48:04.459Z,,,d,false,d,270,1268.5439999999944,response,eR.jpg,b,keypress(f),344019.30000000005,344011.5,343002.6000000001,343003,342742.956,343776.248,
フィードバック(0.5秒),canvas.Screen,13_9_4,2023-01-08T09:48:04.726Z,,,d,,,270,249.9899999999907,timeout,eR.jpg,,,344286.1000000001,344285.5,343759.582,344020.80000000005,343776.248,344026.238,
トライアル,flow.Sequence,13_9,2023-01-08T09:48:04.726Z,,,d,,,270,2759.162000000011,completion,eR.jpg,,,344286.40000000014,344285.5,341779.40000000014,341780,341526.338,344026.238,
空白時間1 (0.5秒),canvas.Screen,13_10_0,2023-01-08T09:48:04.964Z,,,b,,,90,233.32399999996414,timeout,e.jpg,,,344523.69999999995,344523.5,344285.5,344286.5,344026.238,344259.562,
注視(1秒),canvas.Screen,13_10_1,2023-01-08T09:48:05.702Z,,,b,,,90,749.9700000000303,timeout,e.jpg,,,345261.69999999995,345261.5,344523.5,344523.80000000005,344259.562,345009.532,
空白時間2 (0.5秒),canvas.Screen,13_10_2,2023-01-08T09:48:05.957Z,,,b,,,90,249.9899999999907,timeout,e.jpg,,,345516.80000000005,345516.5,345261.5,345261.90000000014,345009.532,345259.522,
刺激提示,canvas.Screen,13_10_3,2023-01-08T09:48:06.880Z,,,b,true,b,90,1176.6779999999562,response,e.jpg,b,keypress(f),346440.30000000005,346436.19999999995,345516.5,345516.90000000014,345259.522,346209.484,
フィードバック(0.5秒),canvas.Screen,13_10_4,2023-01-08T09:48:07.158Z,,,b,,,90,249.9899999999907,timeout,e.jpg,,,346717.90000000014,346717.80000000005,346192.818,346454.19999999995,346209.484,346459.474,
トライアル,flow.Sequence,13_10,2023-01-08T09:48:07.158Z,,,b,,,90,2691.5620000000345,completion,e.jpg,,,346718.19999999995,346717.80000000005,344285.5,344286.5,344026.238,346459.474,
空白時間1 (0.5秒),canvas.Screen,13_11_0,2023-01-08T09:48:07.413Z,,,d,,,45,249.9899999999907,timeout,eR.jpg,,,346973.5,346973.30000000005,346717.80000000005,346718.30000000005,346459.474,346709.464,
注視(1秒),canvas.Screen,13_11_1,2023-01-08T09:48:08.151Z,,,d,,,45,749.9700000000303,timeout,eR.jpg,,,347711.5,347711.1000000001,346973.30000000005,346973.69999999995,346709.464,347459.434,
空白時間2 (0.5秒),canvas.Screen,13_11_2,2023-01-08T09:48:08.396Z,,,d,,,45,233.32399999996414,timeout,eR.jpg,,,347956.1000000001,347955.6000000001,347711.1000000001,347711.80000000005,347459.434,347692.758,
刺激提示,canvas.Screen,13_11_3,2023-01-08T09:48:10.987Z,,,d,true,d,45,2850.3420000001206,response,eR.jpg,d,keypress(j),350547.6000000001,350543.1000000001,347955.6000000001,347956.40000000014,347692.758,350325.986,
フィードバック(0.5秒),canvas.Screen,13_11_4,2023-01-08T09:48:11.267Z,,,d,,,45,240.31500000000233,timeout,eR.jpg,,,350827.90000000014,350827.69999999995,350309.32,350560.40000000014,350325.986,350566.301,
トライアル,flow.Sequence,13_11,2023-01-08T09:48:11.267Z,,,d,,,45,4368.225999999966,completion,eR.jpg,,,350828.1000000001,350827.69999999995,346717.80000000005,346718.19999999995,346459.474,350566.301,
空白時間1 (0.5秒),canvas.Screen,13_12_0,2023-01-08T09:48:11.506Z,,,d,,,90,249.9900000000489,timeout,eR.jpg,,,351066.80000000005,351066.5,350827.69999999995,350828.40000000014,350566.301,350816.291,
注視(1秒),canvas.Screen,13_12_1,2023-01-08T09:48:12.260Z,,,d,,,90,749.9699999999721,timeout,eR.jpg,,,351820.6000000001,351820.40000000014,351066.5,351067,350816.291,351566.261,
空白時間2 (0.5秒),canvas.Screen,13_12_2,2023-01-08T09:48:12.509Z,,,d,,,90,249.9899999999907,timeout,eR.jpg,,,352070.1000000001,352069.90000000014,351820.40000000014,351820.69999999995,351566.261,351816.251,
刺激提示,canvas.Screen,13_12_3,2023-01-08T09:48:13.942Z,,,d,true,d,90,1682.8490000001038,response,eR.jpg,d,keypress(j),353502.90000000014,353499.1000000001,352069.90000000014,352070.19999999995,351816.251,353266.193,
フィードバック(0.5秒),canvas.Screen,13_12_4,2023-01-08T09:48:14.211Z,,,d,,,90,249.9899999999907,timeout,eR.jpg,,,353771.69999999995,353771.5,353249.527,353503.90000000014,353266.193,353516.183,
トライアル,flow.Sequence,13_12,2023-01-08T09:48:14.211Z,,,d,,,90,3205.1990000000224,completion,eR.jpg,,,353771.90000000014,353771.5,350827.69999999995,350828.40000000014,350566.301,353516.183,
空白時間1 (0.5秒),canvas.Screen,13_13_0,2023-01-08T09:48:14.458Z,,,b,,,135,249.9899999999907,timeout,e.jpg,,,354018.69999999995,354018.40000000014,353771.5,353772.1000000001,353516.183,353766.173,
注視(1秒),canvas.Screen,13_13_1,2023-01-08T09:48:15.203Z,,,b,,,135,733.3040000000037,timeout,e.jpg,,,354764,354763.80000000005,354018.40000000014,354018.90000000014,353766.173,354499.477,
空白時間2 (0.5秒),canvas.Screen,13_13_2,2023-01-08T09:48:15.446Z,,,b,,,135,249.9899999999907,timeout,e.jpg,,,355007.1000000001,355006.80000000005,354763.80000000005,354764.1000000001,354499.477,354749.467,
刺激提示,canvas.Screen,13_13_3,2023-01-08T09:48:16.347Z,,,b,true,b,135,1155.4330000001355,response,e.jpg,b,keypress(f),355908.6000000001,355904.90000000014,355006.80000000005,355007.40000000014,354749.467,355666.097,
フィードバック(0.5秒),canvas.Screen,13_13_4,2023-01-08T09:48:16.614Z,,,b,,,135,249.9899999999907,timeout,e.jpg,,,356174.90000000014,356174.6000000001,355649.431,355909.69999999995,355666.097,355916.087,
トライアル,flow.Sequence,13_13,2023-01-08T09:48:16.614Z,,,b,,,135,2658.417000000074,completion,e.jpg,,,356175.1000000001,356174.6000000001,353771.5,353772,353516.183,355916.087,
空白時間1 (0.5秒),canvas.Screen,13_14_0,2023-01-08T09:48:16.852Z,,,b,,,45,233.32400000002235,timeout,e.jpg,,,356413.19999999995,356412.69999999995,356174.6000000001,356175.19999999995,355916.087,356149.411,
注視(1秒),canvas.Screen,13_14_1,2023-01-08T09:48:17.595Z,,,b,,,45,749.9699999999721,timeout,e.jpg,,,357156.1000000001,357155.69999999995,356412.69999999995,356413.30000000005,356149.411,356899.381,
空白時間2 (0.5秒),canvas.Screen,13_14_2,2023-01-08T09:48:17.845Z,,,b,,,45,249.9899999999907,timeout,e.jpg,,,357405.69999999995,357405.40000000014,357155.69999999995,357156.5,356899.381,357149.371,
刺激提示,canvas.Screen,13_14_3,2023-01-08T09:48:18.553Z,,,b,true,b,45,959.7290000001085,response,e.jpg,b,keypress(f),358113.80000000005,358109.1000000001,357405.40000000014,357406,357149.371,357866.009,
フィードバック(0.5秒),canvas.Screen,13_14_4,2023-01-08T09:48:18.813Z,,,b,,,45,249.9899999999907,timeout,e.jpg,,,358374.40000000014,358374.19999999995,357849.343,358115.19999999995,357866.009,358115.999,
トライアル,flow.Sequence,13_14,2023-01-08T09:48:18.814Z,,,b,,,45,2458.112999999954,completion,e.jpg,,,358374.80000000005,358374.19999999995,356174.6000000001,356175.19999999995,355916.087,358115.999,
空白時間1 (0.5秒),canvas.Screen,13_15_0,2023-01-08T09:48:19.058Z,,,b,,,0,249.9899999999907,timeout,e.jpg,,,358618.90000000014,358618.5,358374.19999999995,358374.90000000014,358115.999,358365.989,
注視(1秒),canvas.Screen,13_15_1,2023-01-08T09:48:19.806Z,,,b,,,0,749.9699999999721,timeout,e.jpg,,,359367.40000000014,359367.1000000001,358618.5,358619.1000000001,358365.989,359115.959,
空白時間2 (0.5秒),canvas.Screen,13_15_2,2023-01-08T09:48:20.062Z,,,b,,,0,249.9900000000489,timeout,e.jpg,,,359622.90000000014,359622.6000000001,359367.1000000001,359367.6000000001,359115.959,359365.949,
刺激提示,canvas.Screen,13_15_3,2023-01-08T09:48:20.607Z,,,b,true,b,0,797.9510000001173,response,e.jpg,b,keypress(f),360167.90000000014,360163.90000000014,359622.6000000001,359623.19999999995,359365.949,359932.593,
フィードバック(0.5秒),canvas.Screen,13_15_4,2023-01-08T09:48:20.874Z,,,b,,,0,249.9899999999907,timeout,e.jpg,,,360435.19999999995,360434.90000000014,359915.927,360169.80000000005,359932.593,360182.583,
トライアル,flow.Sequence,13_15,2023-01-08T09:48:20.874Z,,,b,,,0,2318.901000000129,completion,e.jpg,,,360435.40000000014,360434.90000000014,358374.19999999995,358374.90000000014,358115.999,360182.583,
タスクのセット,flow.Loop,13,2023-01-08T09:48:20.874Z,,,,,,,42507.548000000126,completion,,,,360435.5,360434.90000000014,318186.69999999995,318187.5,317927.352,360182.583,
