sender,sender_type,sender_id,timestamp,meta,,answer,correct,correctResponse,deg,duration,ended_on,image,response,response_action,time_commit,time_end,time_render,time_run,time_show,time_switch,url
イントロ1,html.Page,0,2023-01-15T14:19:19.990Z,"{""labjs_version"":""20.2.4"",""labjs_build"":{""flavor"":""development"",""commit"":""f5b4a49f956347addd546a832a3327688c2c0fef""},""location"":""https://labjs.felixhenninger.com/api/labjs_preview/index.html"",""userAgent"":""Mozilla/5.0 (Windows NT 10.0; Win64; x64) AppleWebKit/537.36 (KHTML, like Gecko) Chrome/109.0.0.0 Safari/537.36 Edg/109.0.1518.52"",""platform"":""Win32"",""language"":""ja"",""locale"":""ja-JP"",""timeZone"":""Asia/Tokyo"",""timezoneOffset"":-540,""screen_width"":1280,""screen_height"":720,""scroll_width"":666,""scroll_height"":604,""window_innerWidth"":666,""window_innerHeight"":652,""devicePixelRatio"":1.5}",,,,,,5133.360999976158,form submission,,,,6005.899999976158,6004.899999976158,738.249,866.1000000238419,871.539,6031.944,{}
イントロ2,html.Page,1,2023-01-15T14:19:22.612Z,,,,,,,2596.0559999999996,form submission,,,,8628.399999976158,8628,5988.421,6006.700000047684,6031.944,8638.478,
イントロ3,html.Page,2,2023-01-15T14:19:25.165Z,,,,,,,2541.8220000715264,form submission,,,,11180.700000047684,11180.300000071526,8622.003,8628.600000023842,8638.478,11188.539,
イントロ4,html.Page,3,2023-01-15T14:19:27.041Z,,,,,,,1868.261000071525,form submission,,,,13057.300000071526,13056.800000071526,11172.03,11181,11188.539,13072.013,
イントロ5,html.Page,4,2023-01-15T14:19:28.597Z,,,,,,,1540.687000047683,form submission,,,,14613.200000047684,14612.700000047684,13055.466,13057.800000071526,13072.013,14638.613,
できるだけ早く正確に,canvas.Screen,5,2023-01-15T14:19:29.607Z,,,,,,,999.9450000000015,timeout,,,,15623.300000071526,15621.945,14605.636,14613.399999976158,14638.613,15638.558,
空白時間1 (0.5秒),canvas.Screen,6_0_0,2023-01-15T14:19:30.108Z,,,d,,,135,500.27499999999964,timeout,eR.jpg,,,16123.600000023842,16122.278,15621.945,15623.800000071526,15638.558,16138.833,
注視(1秒),canvas.Screen,6_0_1,2023-01-15T14:19:31.107Z,,,d,,,135,999.9930000000004,timeout,eR.jpg,,,17123.200000047684,17122.112,16122.278,16124,16138.833,17138.826,
空白時間2 (0.5秒),canvas.Screen,6_0_2,2023-01-15T14:19:31.609Z,,,d,,,135,499.7729999999974,timeout,eR.jpg,,,17624.5,17622.084,17122.112,17123.5,17138.826,17638.599,
刺激提示(練習),canvas.Screen,6_0_3,2023-01-15T14:19:32.958Z,,,d,true,d,135,1333.2010000715272,response,eR.jpg,d,keypress(j),18973.5,18971.800000071526,17622.084,17625.300000071526,17638.599,18988.904,
フィードバック(0.5秒),canvas.Screen,6_0_4,2023-01-15T14:19:33.457Z,,,d,,,135,499.7000000000007,timeout,eR.jpg,,,19473.200000047684,19472.026,18972.054,18976.100000023842,18988.904,19488.604,
トライアル,flow.Sequence,6_0,2023-01-15T14:19:33.459Z,,,d,,,135,3833.4680000000008,completion,eR.jpg,,,19475.200000047684,19472.026,15621.945,15623.700000047684,15638.558,19488.604,
空白時間1 (0.5秒),canvas.Screen,6_1_0,2023-01-15T14:19:33.957Z,,,b,,,270,499.9830000000002,timeout,e.jpg,,,19972.399999976158,19971.958,19472.026,19475.800000071526,19488.604,19988.587,
注視(1秒),canvas.Screen,6_1_1,2023-01-15T14:19:34.957Z,,,b,,,270,1000.0580000000009,timeout,e.jpg,,,20973.300000071526,20972.054,19971.958,19972.600000023842,19988.587,20988.645,
空白時間2 (0.5秒),canvas.Screen,6_1_2,2023-01-15T14:19:35.458Z,,,b,,,270,500.0740000000005,timeout,e.jpg,,,21473.399999976158,21472.101,20972.054,20973.600000023842,20988.645,21488.719,
刺激提示(練習),canvas.Screen,6_1_3,2023-01-15T14:19:36.765Z,,,b,false,b,270,1290.780999999999,response,e.jpg,d,keypress(j),22780.600000023842,22779.5,21472.101,21473.700000047684,21488.719,22822.045,
フィードバック(0.5秒),canvas.Screen,6_1_4,2023-01-15T14:19:37.291Z,,,b,,,270,500.08100000000195,timeout,e.jpg,,,23306.800000071526,23305.511,22805.525,22815.700000047684,22822.045,23322.126,
トライアル,flow.Sequence,6_1,2023-01-15T14:19:37.291Z,,,b,,,270,3816.9069999999992,completion,e.jpg,,,23307.200000047684,23305.511,19472.026,19475.600000023842,19488.604,23322.126,
空白時間1 (0.5秒),canvas.Screen,6_2_0,2023-01-15T14:19:37.791Z,,,b,,,180,499.9559999999983,timeout,e.jpg,,,23806.399999976158,23805.479,23305.511,23307.399999976158,23322.126,23822.082,
注視(1秒),canvas.Screen,6_2_1,2023-01-15T14:19:38.791Z,,,b,,,180,999.9410000000025,timeout,e.jpg,,,24806.800000071526,24805.847,23805.479,23806.600000023842,23822.082,24822.023,
空白時間2 (0.5秒),canvas.Screen,6_2_2,2023-01-15T14:19:39.291Z,,,b,,,180,500.17199999999866,timeout,e.jpg,,,25306.5,25305.653,24805.847,24807,24822.023,25322.195,
刺激提示(練習),canvas.Screen,6_2_3,2023-01-15T14:19:40.666Z,,,b,true,b,180,1358.505000047684,response,e.jpg,b,keypress(f),26681.600000023842,26680.700000047684,25305.653,25306.800000071526,25322.195,26688.755,
フィードバック(0.5秒),canvas.Screen,6_2_4,2023-01-15T14:19:41.158Z,,,b,,,180,500.0269999999982,timeout,e.jpg,,,27173.399999976158,27172.159,26672.402,26686.100000023842,26688.755,27188.782,
トライアル,flow.Sequence,6_2,2023-01-15T14:19:41.158Z,,,b,,,180,3850.0329999999994,completion,e.jpg,,,27173.899999976158,27172.159,23305.511,23307.399999976158,23322.126,27188.782,
空白時間1 (0.5秒),canvas.Screen,6_3_0,2023-01-15T14:19:41.658Z,,,d,,,315,500.02000000000044,timeout,eR.jpg,,,27673.399999976158,27672.225,27172.159,27174.200000047684,27188.782,27688.802,
注視(1秒),canvas.Screen,6_3_1,2023-01-15T14:19:42.658Z,,,d,,,315,999.9670000000006,timeout,eR.jpg,,,28673.399999976158,28672.214,27672.225,27673.700000047684,27688.802,28688.769,
空白時間2 (0.5秒),canvas.Screen,6_3_2,2023-01-15T14:19:43.158Z,,,d,,,315,500.04899999999907,timeout,eR.jpg,,,29173.399999976158,29172.238,28672.214,28673.700000047684,28688.769,29188.818,
刺激提示(練習),canvas.Screen,6_3_3,2023-01-15T14:19:44.007Z,,,d,true,d,315,832.6820000000007,response,eR.jpg,d,keypress(j),30022.600000023842,30021.5,29172.238,29173.700000047684,29188.818,30055.538,
フィードバック(0.5秒),canvas.Screen,6_3_4,2023-01-15T14:19:44.524Z,,,d,,,315,500.0649999999987,timeout,eR.jpg,,,30539.800000071526,30539.057,30039.07,30047.700000047684,30055.538,30555.603,
トライアル,flow.Sequence,6_3,2023-01-15T14:19:44.524Z,,,d,,,315,3350.2750000000015,completion,eR.jpg,,,30540,30539.057,27172.159,27174.100000023842,27188.782,30555.603,
練習試行(e),flow.Loop,6,2023-01-15T14:19:44.524Z,,,,,,,14900.499,completion,,,,30540,30539.057,15621.945,15623.600000023842,15638.558,30555.603,
イントロ6,html.Page,7,2023-01-15T14:19:49.838Z,,,,,,,5297.796999976159,form submission,,,,35853.800000071526,35853.39999997616,30539.057,30540.100000023842,30555.603,35855.72,
できるだけ早く正確に,canvas.Screen,8,2023-01-15T14:19:50.824Z,,,,,,,999.898000000001,timeout,,,,36839.800000071526,36839.061,35822.657,35854.10000002384,35855.72,36855.618,
空白時間1 (0.5秒),canvas.Screen,9_0_0,2023-01-15T14:19:51.325Z,,,d,,,225,500.1209999999992,timeout,eR.jpg,,,37340.300000071526,37339.28,36839.061,36840.10000002384,36855.618,37355.739,
注視(1秒),canvas.Screen,9_0_1,2023-01-15T14:19:52.324Z,,,d,,,225,999.9490000000005,timeout,eR.jpg,,,38340.300000071526,38339.022,37339.28,37340.700000047684,37355.739,38355.688,
空白時間2 (0.5秒),canvas.Screen,9_0_2,2023-01-15T14:19:52.825Z,,,d,,,225,500.0829999999987,timeout,eR.jpg,,,38840.39999997616,38839.298,38339.022,38340.60000002384,38355.688,38855.771,
刺激提示,canvas.Screen,9_0_3,2023-01-15T14:19:53.784Z,,,d,false,d,225,942.7289999999994,response,eR.jpg,b,keypress(f),39799.39999997616,39798.5,38839.298,38840.700000047684,38855.771,39822.382,
フィードバック(0.5秒),canvas.Screen,9_0_4,2023-01-15T14:19:54.291Z,,,d,,,225,499.9939999999988,timeout,eR.jpg,,,40306.800000071526,40305.788,39789.292,39834.10000002384,39822.382,40322.376,
トライアル,flow.Sequence,9_0,2023-01-15T14:19:54.291Z,,,d,,,225,3450.1699999999983,completion,eR.jpg,,,40307.200000047684,40305.788,36839.061,36840.10000002384,36855.618,40322.376,
空白時間1 (0.5秒),canvas.Screen,9_1_0,2023-01-15T14:19:54.791Z,,,b,,,45,500.00900000000547,timeout,e.jpg,,,40806.800000071526,40805.834,40305.788,40307.39999997616,40322.376,40822.385,
注視(1秒),canvas.Screen,9_1_1,2023-01-15T14:19:55.791Z,,,b,,,45,1000.1189999999988,timeout,e.jpg,,,41807.200000047684,41806.095,40805.834,40807.10000002384,40822.385,41822.504,
空白時間2 (0.5秒),canvas.Screen,9_1_2,2023-01-15T14:19:56.291Z,,,b,,,45,500.06899999999587,timeout,e.jpg,,,42307,42305.824,41806.095,41807.39999997616,41822.504,42322.573,
刺激提示,canvas.Screen,9_1_3,2023-01-15T14:19:57.261Z,,,b,false,b,45,953.627000047687,response,e.jpg,d,keypress(j),43277.200000047684,43276.200000047684,42305.824,42307.200000047684,42322.573,43305.753,
フィードバック(0.5秒),canvas.Screen,9_1_4,2023-01-15T14:19:57.774Z,,,b,,,45,500.02900000000227,timeout,e.jpg,,,43790.10000002384,43789.198,43289.167,43295.39999997616,43305.753,43805.782,
トライアル,flow.Sequence,9_1,2023-01-15T14:19:57.775Z,,,b,,,45,3466.822,completion,e.jpg,,,43790.5,43789.198,40305.788,40307.39999997616,40322.376,43805.782,
空白時間1 (0.5秒),canvas.Screen,9_2_0,2023-01-15T14:19:58.274Z,,,b,,,180,500.09500000000116,timeout,e.jpg,,,44290.200000047684,44289.187,43789.198,43790.700000047684,43805.782,44305.877,
注視(1秒),canvas.Screen,9_2_1,2023-01-15T14:19:59.275Z,,,b,,,180,1000.0650000000023,timeout,e.jpg,,,45290.60000002384,45289.604,44289.187,44290.39999997616,44305.877,45305.942,
空白時間2 (0.5秒),canvas.Screen,9_2_2,2023-01-15T14:19:59.776Z,,,b,,,180,499.8799999999974,timeout,e.jpg,,,45791.39999997616,45789.518,45289.604,45290.89999997616,45305.942,45805.822,
刺激提示,canvas.Screen,9_2_3,2023-01-15T14:20:02.018Z,,,b,false,b,180,2226.9780000715255,response,e.jpg,d,keypress(j),48033.60000002384,48032.800000071526,45789.518,45791.800000071526,45805.822,48072.632,
フィードバック(0.5秒),canvas.Screen,9_2_4,2023-01-15T14:20:02.541Z,,,b,,,180,499.87400000000343,timeout,e.jpg,,,48556.89999997616,48555.929,48056.091,48056.89999997616,48072.632,48572.506,
トライアル,flow.Sequence,9_2,2023-01-15T14:20:02.541Z,,,b,,,180,4750.146999999997,completion,e.jpg,,,48557.300000071526,48555.929,43789.198,43790.700000047684,43805.782,48572.506,
空白時間1 (0.5秒),canvas.Screen,9_3_0,2023-01-15T14:20:03.041Z,,,b,,,315,500.08899999999994,timeout,e.jpg,,,49056.800000071526,49055.961,48555.929,48557.5,48572.506,49072.595,
注視(1秒),canvas.Screen,9_3_1,2023-01-15T14:20:04.041Z,,,b,,,315,1000.0780000000013,timeout,e.jpg,,,50057.200000047684,50056.251,49055.961,49057,49072.595,50072.673,
空白時間2 (0.5秒),canvas.Screen,9_3_2,2023-01-15T14:20:04.541Z,,,b,,,315,500.0040000000008,timeout,e.jpg,,,50556.800000071526,50555.962,50056.251,50057.39999997616,50072.673,50572.677,
刺激提示,canvas.Screen,9_3_3,2023-01-15T14:20:05.684Z,,,b,false,b,315,1125.8229999999967,response,e.jpg,d,keypress(j),51699.5,51698.5,50555.962,50557.10000002384,50572.677,51739.312,
フィードバック(0.5秒),canvas.Screen,9_3_4,2023-01-15T14:20:06.208Z,,,b,,,315,500.24000000000524,timeout,e.jpg,,,52224.10000002384,52222.731,51722.625,51732.300000071526,51739.312,52239.552,
トライアル,flow.Sequence,9_3,2023-01-15T14:20:06.209Z,,,b,,,315,3650.2249999999985,completion,e.jpg,,,52224.39999997616,52222.731,48555.929,48557.5,48572.506,52239.552,
空白時間1 (0.5秒),canvas.Screen,9_4_0,2023-01-15T14:20:06.708Z,,,b,,,135,499.8029999999999,timeout,e.jpg,,,52723.39999997616,52722.705,52222.731,52224.700000047684,52239.552,52739.355,
注視(1秒),canvas.Screen,9_4_1,2023-01-15T14:20:07.708Z,,,b,,,135,1000.2019999999975,timeout,e.jpg,,,53724.10000002384,53722.739,52722.705,52723.800000071526,52739.355,53739.557,
空白時間2 (0.5秒),canvas.Screen,9_4_2,2023-01-15T14:20:08.208Z,,,b,,,135,500.03899999999703,timeout,e.jpg,,,54224,54222.774,53722.739,53724.300000071526,53739.557,54239.596,
刺激提示,canvas.Screen,9_4_3,2023-01-15T14:20:10.454Z,,,b,true,b,135,2227.604000047686,response,e.jpg,b,keypress(f),56469.5,56467.200000047684,54222.774,54224.200000047684,54239.596,56506.007,
フィードバック(0.5秒),canvas.Screen,9_4_4,2023-01-15T14:20:10.975Z,,,b,,,135,500.11700000000565,timeout,e.jpg,,,56991,56989.796,56489.436,56499.39999997616,56506.007,57006.124,
トライアル,flow.Sequence,9_4,2023-01-15T14:20:10.976Z,,,b,,,135,4750.243999999999,completion,e.jpg,,,56991.5,56989.796,52222.731,52224.60000002384,52239.552,57006.124,
空白時間1 (0.5秒),canvas.Screen,9_5_0,2023-01-15T14:20:11.474Z,,,d,,,90,499.9459999999963,timeout,eR.jpg,,,57490.10000002384,57489.455,56989.796,56991.700000047684,57006.124,57506.07,
注視(1秒),canvas.Screen,9_5_1,2023-01-15T14:20:12.475Z,,,d,,,90,1000.0840000000026,timeout,eR.jpg,,,58490.800000071526,58489.787,57489.455,57490.300000071526,57506.07,58506.154,
空白時間2 (0.5秒),canvas.Screen,9_5_2,2023-01-15T14:20:12.975Z,,,d,,,90,516.6100000000006,timeout,eR.jpg,,,58990.39999997616,58989.53,58489.787,58491,58506.154,59022.764,
刺激提示,canvas.Screen,9_5_3,2023-01-15T14:20:14.262Z,,,d,true,d,90,1254.1359999761553,response,eR.jpg,d,keypress(j),60278,60276.89999997616,58989.53,58990.700000047684,59022.764,60306.117,
フィードバック(0.5秒),canvas.Screen,9_5_4,2023-01-15T14:20:14.774Z,,,d,,,90,500.02500000000146,timeout,eR.jpg,,,60790.300000071526,60789.518,60289.567,60302.200000047684,60306.117,60806.142,
トライアル,flow.Sequence,9_5,2023-01-15T14:20:14.775Z,,,d,,,90,3783.393999999993,completion,eR.jpg,,,60790.5,60789.518,56989.796,56991.60000002384,57006.124,60806.142,
空白時間1 (0.5秒),canvas.Screen,9_6_0,2023-01-15T14:20:15.275Z,,,b,,,0,500.0440000000017,timeout,e.jpg,,,61290.5,61289.556,60789.518,60790.700000047684,60806.142,61306.186,
注視(1秒),canvas.Screen,9_6_1,2023-01-15T14:20:16.275Z,,,b,,,0,999.9939999999988,timeout,e.jpg,,,62290.89999997616,62289.865,61289.556,61290.700000047684,61306.186,62306.18,
空白時間2 (0.5秒),canvas.Screen,9_6_2,2023-01-15T14:20:16.775Z,,,b,,,0,516.6339999999982,timeout,e.jpg,,,62790.5,62789.534,62289.865,62291.10000002384,62306.18,62822.814,
刺激提示,canvas.Screen,9_6_3,2023-01-15T14:20:17.948Z,,,b,true,b,0,1139.7860000238434,response,e.jpg,b,keypress(f),63963.60000002384,63962.60000002384,62789.534,62790.700000047684,62822.814,63989.616,
フィードバック(0.5秒),canvas.Screen,9_6_4,2023-01-15T14:20:18.458Z,,,b,,,0,500.17199999999866,timeout,e.jpg,,,64474.200000047684,64472.992,63973.008,63988,63989.616,64489.788,
トライアル,flow.Sequence,9_6,2023-01-15T14:20:18.459Z,,,b,,,0,3666.8499999999985,completion,e.jpg,,,64474.60000002384,64472.992,60789.518,60790.60000002384,60806.142,64489.788,
空白時間1 (0.5秒),canvas.Screen,9_7_0,2023-01-15T14:20:18.958Z,,,d,,,315,499.83699999999953,timeout,eR.jpg,,,64973.800000071526,64972.935,64472.992,64474.89999997616,64489.788,64989.625,
注視(1秒),canvas.Screen,9_7_1,2023-01-15T14:20:19.958Z,,,d,,,315,1000.0779999999941,timeout,eR.jpg,,,65973.89999997616,65972.992,64972.935,64974,64989.625,65989.703,
空白時間2 (0.5秒),canvas.Screen,9_7_2,2023-01-15T14:20:20.458Z,,,d,,,315,499.83699999999953,timeout,eR.jpg,,,66473.80000007153,66472.998,65972.992,65974.10000002384,65989.703,66489.54,
刺激提示,canvas.Screen,9_7_3,2023-01-15T14:20:21.319Z,,,d,true,d,315,844.8599999761645,response,eR.jpg,d,keypress(j),67335.30000007153,67334.39999997616,66472.998,66474,66489.54,67373.185,
フィードバック(0.5秒),canvas.Screen,9_7_4,2023-01-15T14:20:21.841Z,,,d,,,315,499.81900000000314,timeout,eR.jpg,,,67857.30000007153,67856.29,67356.34,67359.70000004768,67373.185,67873.004,
トライアル,flow.Sequence,9_7,2023-01-15T14:20:21.842Z,,,d,,,315,3366.501999999993,completion,eR.jpg,,,67857.80000007153,67856.29,64472.992,64474.800000071526,64489.788,67873.004,
空白時間1 (0.5秒),canvas.Screen,9_8_0,2023-01-15T14:20:22.342Z,,,d,,,180,500.0139999999956,timeout,eR.jpg,,,68357.39999997616,68356.385,67856.29,67858,67873.004,68373.018,
注視(1秒),canvas.Screen,9_8_1,2023-01-15T14:20:23.341Z,,,d,,,180,1000.2430000000022,timeout,eR.jpg,,,69357.39999997616,69356.371,68356.385,68357.60000002384,68373.018,69373.261,
空白時間2 (0.5秒),canvas.Screen,9_8_2,2023-01-15T14:20:23.842Z,,,d,,,180,499.6820000000007,timeout,eR.jpg,,,69857.5,69856.431,69356.371,69357.5,69373.261,69872.943,
刺激提示,canvas.Screen,9_8_3,2023-01-15T14:20:25.992Z,,,d,true,d,180,2133.3570000715263,response,eR.jpg,d,keypress(j),72007.5,72006.30000007153,69856.431,69857.80000007153,69872.943,72039.658,
フィードバック(0.5秒),canvas.Screen,9_8_4,2023-01-15T14:20:26.509Z,,,d,,,180,500.27900000000955,timeout,eR.jpg,,,72524.70000004768,72523.361,72023.115,72031.70000004768,72039.658,72539.937,
トライアル,flow.Sequence,9_8,2023-01-15T14:20:26.509Z,,,d,,,180,4650.357000000004,completion,eR.jpg,,,72525.10000002384,72523.361,67856.29,67857.89999997616,67873.004,72539.937,
空白時間1 (0.5秒),canvas.Screen,9_9_0,2023-01-15T14:20:27.008Z,,,b,,,90,499.82399999999325,timeout,e.jpg,,,73023.89999997616,73023.126,72523.361,72525.39999997616,72539.937,73039.761,
注視(1秒),canvas.Screen,9_9_1,2023-01-15T14:20:28.009Z,,,b,,,90,1000.2109999999957,timeout,e.jpg,,,74024.70000004768,74023.144,73023.126,73024.20000004768,73039.761,74039.972,
空白時間2 (0.5秒),canvas.Screen,9_9_2,2023-01-15T14:20:28.509Z,,,b,,,90,500.0570000000007,timeout,e.jpg,,,74524.80000007153,74523.512,74023.144,74024.89999997616,74039.972,74540.029,
刺激提示,canvas.Screen,9_9_3,2023-01-15T14:20:29.536Z,,,b,true,b,90,1010.971000000005,response,e.jpg,b,keypress(f),75551.80000007153,75551,74523.512,74524.89999997616,74540.029,75573.067,
フィードバック(0.5秒),canvas.Screen,9_9_4,2023-01-15T14:20:30.041Z,,,b,,,90,500.1399999999994,timeout,e.jpg,,,76057.30000007153,76056.508,75556.825,75567.80000007153,75573.067,76073.207,
トライアル,flow.Sequence,9_9,2023-01-15T14:20:30.042Z,,,b,,,90,3516.5709999999963,completion,e.jpg,,,76057.70000004768,76056.508,72523.361,72525.30000007153,72539.937,76073.207,
空白時間1 (0.5秒),canvas.Screen,9_10_0,2023-01-15T14:20:30.542Z,,,b,,,225,499.9820000000036,timeout,e.jpg,,,76557.5,76556.555,76056.508,76058,76073.207,76573.189,
注視(1秒),canvas.Screen,9_10_1,2023-01-15T14:20:31.542Z,,,b,,,225,1000.0390000000043,timeout,e.jpg,,,77558,77556.776,76556.555,76557.89999997616,76573.189,77573.228,
空白時間2 (0.5秒),canvas.Screen,9_10_2,2023-01-15T14:20:32.042Z,,,b,,,225,499.89100000000326,timeout,e.jpg,,,78057.5,78056.537,77556.776,77558.20000004768,77573.228,78073.119,
刺激提示,canvas.Screen,9_10_3,2023-01-15T14:20:32.960Z,,,b,false,b,225,901.4810000238358,response,e.jpg,d,keypress(j),78975.60000002384,78974.60000002384,78056.537,78057.70000004768,78073.119,78989.795,
フィードバック(0.5秒),canvas.Screen,9_10_4,2023-01-15T14:20:33.459Z,,,b,,,225,500.3029999999999,timeout,e.jpg,,,79474.60000002384,79473.54,78973.175,78988,78989.795,79490.098,
トライアル,flow.Sequence,9_10,2023-01-15T14:20:33.459Z,,,b,,,225,3400.3329999999987,completion,e.jpg,,,79475,79473.54,76056.508,76057.89999997616,76073.207,79490.098,
空白時間1 (0.5秒),canvas.Screen,9_11_0,2023-01-15T14:20:33.959Z,,,d,,,45,499.80500000000757,timeout,eR.jpg,,,79974.39999997616,79973.585,79473.54,79475.30000007153,79490.098,79989.903,
注視(1秒),canvas.Screen,9_11_1,2023-01-15T14:20:34.959Z,,,d,,,45,1000.0629999999946,timeout,eR.jpg,,,80974.80000007153,80973.555,79973.585,79974.70000004768,79989.903,80989.966,
空白時間2 (0.5秒),canvas.Screen,9_11_2,2023-01-15T14:20:35.459Z,,,d,,,45,516.5789999999979,timeout,eR.jpg,,,81474.5,81473.537,80973.555,80975,80989.966,81506.545,
刺激提示,canvas.Screen,9_11_3,2023-01-15T14:20:36.407Z,,,d,true,d,45,914.9550000000017,response,eR.jpg,d,keypress(j),82422.5,82421.5,81473.537,81474.80000007153,81506.545,82439.88,
フィードバック(0.5秒),canvas.Screen,9_11_4,2023-01-15T14:20:36.909Z,,,d,,,45,500.2649999999994,timeout,eR.jpg,,,82924.39999997616,82923.356,82423.52,82424.30000007153,82439.88,82940.145,
トライアル,flow.Sequence,9_11,2023-01-15T14:20:36.909Z,,,d,,,45,3433.2580000000016,completion,eR.jpg,,,82924.80000007153,82923.356,79473.54,79475.20000004768,79490.098,82940.145,
空白時間1 (0.5秒),canvas.Screen,9_12_0,2023-01-15T14:20:37.409Z,,,d,,,270,499.83000000000175,timeout,eR.jpg,,,83424.70000004768,83423.557,82923.356,82925,82940.145,83439.975,
注視(1秒),canvas.Screen,9_12_1,2023-01-15T14:20:38.409Z,,,d,,,270,1000.2309999999998,timeout,eR.jpg,,,84424.60000002384,84423.556,83423.557,83424.89999997616,83439.975,84440.206,
空白時間2 (0.5秒),canvas.Screen,9_12_2,2023-01-15T14:20:38.909Z,,,d,,,270,499.7259999999951,timeout,eR.jpg,,,84924.70000004768,84923.577,84423.556,84424.70000004768,84440.206,84939.932,
刺激提示,canvas.Screen,9_12_3,2023-01-15T14:20:39.909Z,,,d,true,d,270,984.1680000238412,response,eR.jpg,d,keypress(j),85925,85924.10000002384,84923.577,84924.89999997616,84939.932,85939.936,
フィードバック(0.5秒),canvas.Screen,9_12_4,2023-01-15T14:20:40.409Z,,,d,,,270,500.1649999999936,timeout,eR.jpg,,,86424.5,86423.42,85923.562,85937.30000007153,85939.936,86440.101,
トライアル,flow.Sequence,9_12,2023-01-15T14:20:40.409Z,,,d,,,270,3483.274999999994,completion,eR.jpg,,,86424.89999997616,86423.42,82923.356,82925,82940.145,86440.101,
空白時間1 (0.5秒),canvas.Screen,9_13_0,2023-01-15T14:20:40.909Z,,,d,,,0,500.125,timeout,eR.jpg,,,86924.60000002384,86923.663,86423.42,86425.20000004768,86440.101,86940.226,
注視(1秒),canvas.Screen,9_13_1,2023-01-15T14:20:41.908Z,,,d,,,0,1000.0470000000059,timeout,eR.jpg,,,87924.30000007153,87923.44,86923.663,86924.80000007153,86940.226,87940.273,
空白時間2 (0.5秒),canvas.Screen,9_13_2,2023-01-15T14:20:42.409Z,,,d,,,0,516.4079999999958,timeout,eR.jpg,,,88424.80000007153,88423.731,87923.44,87924.60000002384,87940.273,88456.681,
刺激提示,canvas.Screen,9_13_3,2023-01-15T14:20:43.309Z,,,d,true,d,0,867.3190000000031,response,eR.jpg,d,keypress(j),89325,89324,88423.731,88425.10000002384,88456.681,89356.69,
フィードバック(0.5秒),canvas.Screen,9_13_4,2023-01-15T14:20:43.826Z,,,d,,,0,500.21199999999953,timeout,eR.jpg,,,89841.39999997616,89840.419,89340.179,89349.39999997616,89356.69,89856.902,
トライアル,flow.Sequence,9_13,2023-01-15T14:20:43.826Z,,,d,,,0,3400.3179999999993,completion,eR.jpg,,,89841.80000007153,89840.419,86423.42,86425.10000002384,86440.101,89856.902,
空白時間1 (0.5秒),canvas.Screen,9_14_0,2023-01-15T14:20:44.325Z,,,b,,,270,500.0720000000001,timeout,e.jpg,,,90341.10000002384,90340.157,89840.419,89842,89856.902,90356.974,
注視(1秒),canvas.Screen,9_14_1,2023-01-15T14:20:45.325Z,,,b,,,270,999.9829999999929,timeout,e.jpg,,,91341.30000007153,91340.176,90340.157,90341.30000007153,90356.974,91356.957,
空白時間2 (0.5秒),canvas.Screen,9_14_2,2023-01-15T14:20:45.825Z,,,b,,,270,499.76600000000326,timeout,e.jpg,,,91841,91840.168,91340.176,91341.5,91356.957,91856.723,
刺激提示,canvas.Screen,9_14_3,2023-01-15T14:20:48.063Z,,,b,true,b,270,2221.0770000715274,response,e.jpg,b,keypress(f),94078.70000004768,94077.80000007153,91840.168,91841.30000007153,91856.723,94106.842,
フィードバック(0.5秒),canvas.Screen,9_14_4,2023-01-15T14:20:48.576Z,,,b,,,270,500.2569999999978,timeout,e.jpg,,,94591.5,94590.404,94090.415,94102.89999997616,94106.842,94607.099,
トライアル,flow.Sequence,9_14,2023-01-15T14:20:48.576Z,,,b,,,270,4733.501999999993,completion,e.jpg,,,94591.89999997616,94590.404,89840.419,89842,89856.902,94607.099,
空白時間1 (0.5秒),canvas.Screen,9_15_0,2023-01-15T14:20:49.075Z,,,d,,,135,499.7679999999964,timeout,eR.jpg,,,95091.10000002384,95090.203,94590.404,94592.10000002384,94607.099,95106.867,
注視(1秒),canvas.Screen,9_15_1,2023-01-15T14:20:50.076Z,,,d,,,135,1000.070000000007,timeout,eR.jpg,,,96091.80000007153,96090.565,95090.203,95091.20000004768,95106.867,96106.937,
空白時間2 (0.5秒),canvas.Screen,9_15_2,2023-01-15T14:20:50.576Z,,,d,,,135,516.5800000000017,timeout,eR.jpg,,,96591.5,96590.584,96090.565,96092,96106.937,96623.517,
刺激提示,canvas.Screen,9_15_3,2023-01-15T14:20:52.046Z,,,d,true,d,135,1437.882999976151,response,eR.jpg,d,keypress(j),98062.39999997616,98061.39999997616,96590.584,96591.80000007153,96623.517,98090.235,
フィードバック(0.5秒),canvas.Screen,9_15_4,2023-01-15T14:20:52.559Z,,,d,,,135,500.0770000000048,timeout,eR.jpg,,,98575,98573.939,98073.715,98086.70000004768,98090.235,98590.312,
トライアル,flow.Sequence,9_15,2023-01-15T14:20:52.560Z,,,d,,,135,3966.8399999999965,completion,eR.jpg,,,98575.5,98573.939,94590.404,94592.10000002384,94607.099,98590.312,
タスクのセット,flow.Loop,9,2023-01-15T14:20:52.560Z,,,,,,,61718.320999999996,completion,,,,98575.70000004768,98573.939,36839.061,36840,36855.618,98590.312,
空白時間1 (0.5秒),canvas.Screen,10_0_0,2023-01-15T14:20:53.061Z,,,b,,,225,499.9279999999999,timeout,e.jpg,,,99076.60000002384,99073.643,98573.939,98576.10000002384,98590.312,99090.24,
注視(1秒),canvas.Screen,10_0_1,2023-01-15T14:20:54.059Z,,,b,,,225,1000.2699999999895,timeout,e.jpg,,,100075,100073.958,99073.643,99076.89999997616,99090.24,100090.51,
空白時間2 (0.5秒),canvas.Screen,10_0_2,2023-01-15T14:20:54.559Z,,,b,,,225,500.0630000000092,timeout,e.jpg,,,100575.10000002384,100573.929,100073.958,100075.30000007153,100090.51,100590.573,
刺激提示,canvas.Screen,10_0_3,2023-01-15T14:20:56.063Z,,,b,true,b,225,1486.926999999996,response,e.jpg,b,keypress(f),102078.5,102077.5,100573.929,100575.39999997616,100590.573,102107.185,
フィードバック(0.5秒),canvas.Screen,10_0_4,2023-01-15T14:20:56.576Z,,,b,,,225,499.8929999999964,timeout,e.jpg,,,102591.80000007153,102590.578,102090.558,102095.60000002384,102107.185,102607.078,
トライアル,flow.Sequence,10_0,2023-01-15T14:20:56.576Z,,,b,,,225,4000.2659999999887,completion,e.jpg,,,102592.20000004768,102590.578,98573.939,98575.89999997616,98590.312,102607.078,
空白時間1 (0.5秒),canvas.Screen,10_1_0,2023-01-15T14:20:57.075Z,,,d,,,225,499.9800000000105,timeout,eR.jpg,,,103091.30000007153,103090.426,102590.578,102592.39999997616,102607.078,103107.058,
注視(1秒),canvas.Screen,10_1_1,2023-01-15T14:20:58.076Z,,,d,,,225,1000.1849999999977,timeout,eR.jpg,,,104091.70000004768,104090.742,103090.426,103091.5,103107.058,104107.243,
空白時間2 (0.5秒),canvas.Screen,10_1_2,2023-01-15T14:20:58.576Z,,,d,,,225,499.74499999999534,timeout,eR.jpg,,,104591.80000007153,104590.686,104090.742,104091.89999997616,104107.243,104606.988,
刺激提示,canvas.Screen,10_1_3,2023-01-15T14:20:59.638Z,,,d,true,d,225,1046.2120000476862,response,eR.jpg,d,keypress(j),105654.10000002384,105653.20000004768,104590.686,104592,104606.988,105673.664,
フィードバック(0.5秒),canvas.Screen,10_1_4,2023-01-15T14:21:00.143Z,,,d,,,225,500.1290000000008,timeout,eR.jpg,,,106158.39999997616,106157.16,105657.322,105664.70000004768,105673.664,106173.793,
トライアル,flow.Sequence,10_1,2023-01-15T14:21:00.143Z,,,d,,,225,3550.0820000000094,completion,eR.jpg,,,106158.70000004768,106157.16,102590.578,102592.30000007153,102607.078,106173.793,
空白時間1 (0.5秒),canvas.Screen,10_2_0,2023-01-15T14:21:00.642Z,,,d,,,0,500.0309999999881,timeout,eR.jpg,,,106658.20000004768,106657.118,106157.16,106158.89999997616,106173.793,106673.824,
注視(1秒),canvas.Screen,10_2_1,2023-01-15T14:21:01.642Z,,,d,,,0,1000.0310000000027,timeout,eR.jpg,,,107658.20000004768,107657.183,106657.118,106658.5,106673.824,107673.855,
空白時間2 (0.5秒),canvas.Screen,10_2_2,2023-01-15T14:21:02.143Z,,,d,,,0,499.8880000000063,timeout,eR.jpg,,,108158.5,108157.387,107657.183,107658.39999997616,107673.855,108173.743,
刺激提示,canvas.Screen,10_2_3,2023-01-15T14:21:02.998Z,,,d,true,d,0,838.8570000238396,response,eR.jpg,d,keypress(j),109013.5,109012.60000002384,108157.387,108158.70000004768,108173.743,109023.806,
フィードバック(0.5秒),canvas.Screen,10_2_4,2023-01-15T14:21:03.493Z,,,d,,,0,500.31700000001,timeout,eR.jpg,,,109508.39999997616,109507.433,109007.383,109015.39999997616,109023.806,109524.123,
トライアル,flow.Sequence,10_2,2023-01-15T14:21:03.493Z,,,d,,,0,3333.6399999999994,completion,eR.jpg,,,109508.89999997616,109507.433,106157.16,106158.89999997616,106173.793,109524.123,
空白時間1 (0.5秒),canvas.Screen,10_3_0,2023-01-15T14:21:03.992Z,,,b,,,45,499.6369999999879,timeout,e.jpg,,,110008.30000007153,110007.383,109507.433,109509.20000004768,109524.123,110023.76,
注視(1秒),canvas.Screen,10_3_1,2023-01-15T14:21:04.993Z,,,b,,,45,1000.3580000000075,timeout,e.jpg,,,111008.5,111007.44,110007.383,110008.60000002384,110023.76,111024.118,
空白時間2 (0.5秒),canvas.Screen,10_3_2,2023-01-15T14:21:05.492Z,,,b,,,45,499.997000000003,timeout,e.jpg,,,111508.20000004768,111507.276,111007.44,111008.70000004768,111024.118,111524.115,
刺激提示,canvas.Screen,10_3_3,2023-01-15T14:21:06.211Z,,,b,true,b,45,701.5850000476785,response,e.jpg,b,keypress(f),112226.5,112225.70000004768,111507.276,111508.5,111524.115,112257.195,
フィードバック(0.5秒),canvas.Screen,10_3_4,2023-01-15T14:21:06.726Z,,,b,,,45,500.14899999999034,timeout,e.jpg,,,112742.10000002384,112740.925,112240.713,112243.30000007153,112257.195,112757.344,
トライアル,flow.Sequence,10_3,2023-01-15T14:21:06.727Z,,,b,,,45,3216.801999999996,completion,e.jpg,,,112742.39999997616,112740.925,109507.433,109509.10000002384,109524.123,112757.344,
空白時間1 (0.5秒),canvas.Screen,10_4_0,2023-01-15T14:21:07.226Z,,,d,,,135,499.91900000000896,timeout,eR.jpg,,,113241.60000002384,113240.612,112740.925,112742.60000002384,112757.344,113257.263,
注視(1秒),canvas.Screen,10_4_1,2023-01-15T14:21:08.226Z,,,d,,,135,1000.0089999999909,timeout,eR.jpg,,,114242,114240.863,113240.612,113241.70000004768,113257.263,114257.272,
空白時間2 (0.5秒),canvas.Screen,10_4_2,2023-01-15T14:21:08.725Z,,,d,,,135,499.92399999999907,timeout,eR.jpg,,,114741.30000007153,114740.814,114240.863,114242.10000002384,114257.272,114757.196,
刺激提示,canvas.Screen,10_4_3,2023-01-15T14:21:10.350Z,,,d,true,d,135,1607.7039999761619,response,eR.jpg,d,keypress(j),116365.80000007153,116364.89999997616,114740.814,114741.39999997616,114757.196,116413.598,
フィードバック(0.5秒),canvas.Screen,10_4_4,2023-01-15T14:21:10.876Z,,,d,,,135,493.9079999999958,timeout,eR.jpg,,,116892.10000002384,116891.008,116374.162,116389.89999997616,116413.598,116907.506,
トライアル,flow.Sequence,10_4,2023-01-15T14:21:10.877Z,,,d,,,135,4133.664000000004,completion,eR.jpg,,,116892.5,116891.008,112740.925,112742.60000002384,112757.344,116907.506,
空白時間1 (0.5秒),canvas.Screen,10_5_0,2023-01-15T14:21:11.376Z,,,d,,,90,499.8550000000105,timeout,eR.jpg,,,117391.89999997616,117390.937,116891.008,116892.70000004768,116907.506,117407.361,
注視(1秒),canvas.Screen,10_5_1,2023-01-15T14:21:12.376Z,,,d,,,90,1000.2079999999987,timeout,eR.jpg,,,118392.20000004768,118391.016,117390.937,117392.10000002384,117407.361,118407.569,
空白時間2 (0.5秒),canvas.Screen,10_5_2,2023-01-15T14:21:12.876Z,,,d,,,90,516.4079999999958,timeout,eR.jpg,,,118891.89999997616,118890.875,118391.016,118392.39999997616,118407.569,118923.977,
刺激提示,canvas.Screen,10_5_3,2023-01-15T14:21:14.026Z,,,d,true,d,90,1116.523000000001,response,eR.jpg,d,keypress(j),120041.5,120040.5,118890.875,118892.20000004768,118923.977,120057.346,
フィードバック(0.5秒),canvas.Screen,10_5_4,2023-01-15T14:21:14.526Z,,,d,,,90,500,timeout,eR.jpg,,,120542.10000002384,120541.09,120040.752,120053,120057.346,120557.346,
トライアル,flow.Sequence,10_5,2023-01-15T14:21:14.527Z,,,d,,,90,3633.5840000000026,completion,eR.jpg,,,120542.5,120541.09,116891.008,116892.70000004768,116907.506,120557.346,
空白時間1 (0.5秒),canvas.Screen,10_6_0,2023-01-15T14:21:15.026Z,,,b,,,0,500.08699999999953,timeout,e.jpg,,,121041.60000002384,121040.786,120541.09,120542.70000004768,120557.346,121057.433,
注視(1秒),canvas.Screen,10_6_1,2023-01-15T14:21:16.026Z,,,b,,,0,1000.1789999999892,timeout,e.jpg,,,122042.20000004768,122041.122,121040.786,121041.70000004768,121057.433,122057.612,
空白時間2 (0.5秒),canvas.Screen,10_6_2,2023-01-15T14:21:16.526Z,,,b,,,0,499.84100000000035,timeout,e.jpg,,,122541.80000007153,122540.813,122041.122,122042.39999997616,122057.612,122557.453,
刺激提示,canvas.Screen,10_6_3,2023-01-15T14:21:17.616Z,,,b,true,b,0,1073.6470000238478,response,e.jpg,b,keypress(f),123631.89999997616,123631.10000002384,122540.813,122542.10000002384,122557.453,123657.377,
フィードバック(0.5秒),canvas.Screen,10_6_4,2023-01-15T14:21:18.126Z,,,b,,,0,500.1000000000058,timeout,e.jpg,,,124142.20000004768,124141.169,123641.071,123647.89999997616,123657.377,124157.477,
トライアル,flow.Sequence,10_6,2023-01-15T14:21:18.127Z,,,b,,,0,3583.8229999999894,completion,e.jpg,,,124142.80000007153,124141.169,120541.09,120542.60000002384,120557.346,124157.477,
空白時間1 (0.5秒),canvas.Screen,10_7_0,2023-01-15T14:21:18.626Z,,,d,,,180,500.00100000000384,timeout,eR.jpg,,,124641.89999997616,124640.864,124141.169,124143,124157.477,124657.478,
注視(1秒),canvas.Screen,10_7_1,2023-01-15T14:21:19.626Z,,,d,,,180,1000.0979999999981,timeout,eR.jpg,,,125642,125640.958,124640.864,124642.30000007153,124657.478,125657.576,
空白時間2 (0.5秒),canvas.Screen,10_7_2,2023-01-15T14:21:20.126Z,,,d,,,180,500.07600000000093,timeout,eR.jpg,,,126142.20000004768,126141.117,125640.958,125642.20000004768,125657.576,126157.652,
刺激提示,canvas.Screen,10_7_3,2023-01-15T14:21:21.506Z,,,d,true,d,180,1363.44800002384,response,eR.jpg,d,keypress(j),127522.10000002384,127521.10000002384,126141.117,126142.39999997616,126157.652,127540.784,
フィードバック(0.5秒),canvas.Screen,10_7_4,2023-01-15T14:21:22.010Z,,,d,,,180,500.3530000000028,timeout,eR.jpg,,,128025.60000002384,128024.537,127524.237,127538.5,127540.784,128041.137,
トライアル,flow.Sequence,10_7,2023-01-15T14:21:22.010Z,,,d,,,180,3867.0599999999977,completion,eR.jpg,,,128025.89999997616,128024.537,124141.169,124142.89999997616,124157.477,128041.137,
空白時間1 (0.5秒),canvas.Screen,10_8_0,2023-01-15T14:21:22.510Z,,,d,,,270,499.7280000000028,timeout,eR.jpg,,,128525.70000004768,128524.548,128024.537,128026.20000004768,128041.137,128540.865,
注視(1秒),canvas.Screen,10_8_1,2023-01-15T14:21:23.510Z,,,d,,,270,1000.2669999999925,timeout,eR.jpg,,,129525.60000002384,129524.563,128524.548,128526.10000002384,128540.865,129541.132,
空白時間2 (0.5秒),canvas.Screen,10_8_2,2023-01-15T14:21:24.010Z,,,d,,,270,499.98399999999674,timeout,eR.jpg,,,130025.60000002384,130024.531,129524.563,129525.80000007153,129541.132,130041.116,
刺激提示,canvas.Screen,10_8_3,2023-01-15T14:21:25.263Z,,,d,true,d,270,1237.0840000476892,response,eR.jpg,d,keypress(j),131279.20000004768,131278.20000004768,130024.531,130025.80000007153,130041.116,131307.533,
フィードバック(0.5秒),canvas.Screen,10_8_4,2023-01-15T14:21:25.776Z,,,d,,,270,500.30199999999604,timeout,eR.jpg,,,131792.20000004768,131791.258,131291.117,131296,131307.533,131807.835,
トライアル,flow.Sequence,10_8,2023-01-15T14:21:25.777Z,,,d,,,270,3750.120999999999,completion,eR.jpg,,,131792.70000004768,131791.258,128024.537,128026.10000002384,128041.137,131807.835,
空白時間1 (0.5秒),canvas.Screen,10_9_0,2023-01-15T14:21:26.276Z,,,b,,,270,499.7860000000219,timeout,e.jpg,,,132291.89999997616,132290.985,131791.258,131792.89999997616,131807.835,132307.621,
注視(1秒),canvas.Screen,10_9_1,2023-01-15T14:21:27.277Z,,,b,,,270,1000.2319999999891,timeout,e.jpg,,,133292.5,133291.287,132290.985,132292.20000004768,132307.621,133307.853,
空白時間2 (0.5秒),canvas.Screen,10_9_2,2023-01-15T14:21:27.776Z,,,b,,,270,500.0199999999895,timeout,e.jpg,,,133792.10000002384,133791.262,133291.287,133292.70000004768,133307.853,133807.873,
刺激提示,canvas.Screen,10_9_3,2023-01-15T14:21:29.404Z,,,b,true,b,270,1611.0269999761658,response,e.jpg,b,keypress(f),135419.89999997616,135418.89999997616,133791.262,133792.30000007153,133807.873,135441.003,
フィードバック(0.5秒),canvas.Screen,10_9_4,2023-01-15T14:21:29.910Z,,,b,,,270,500.054999999993,timeout,e.jpg,,,135925.89999997616,135924.665,135424.543,135436.89999997616,135441.003,135941.058,
トライアル,flow.Sequence,10_9,2023-01-15T14:21:29.910Z,,,b,,,270,4116.830000000016,completion,e.jpg,,,135926.20000004768,135924.665,131791.258,131792.89999997616,131807.835,135941.058,
空白時間1 (0.5秒),canvas.Screen,10_10_0,2023-01-15T14:21:30.410Z,,,b,,,315,500.00800000000163,timeout,e.jpg,,,136425.5,136424.42,135924.665,135926.5,135941.058,136441.066,
注視(1秒),canvas.Screen,10_10_1,2023-01-15T14:21:31.410Z,,,b,,,315,1000.0360000000219,timeout,e.jpg,,,137425.89999997616,137424.75,136424.42,136425.70000004768,136441.066,137441.102,
空白時間2 (0.5秒),canvas.Screen,10_10_2,2023-01-15T14:21:31.909Z,,,b,,,315,500.23199999998906,timeout,e.jpg,,,137925.39999997616,137924.415,137424.75,137426.20000004768,137441.102,137941.334,
刺激提示,canvas.Screen,10_10_3,2023-01-15T14:21:32.783Z,,,b,true,b,315,856.1659999999974,response,e.jpg,b,keypress(f),138798.39999997616,138797.5,137924.415,137925.5,137941.334,138807.727,
フィードバック(0.5秒),canvas.Screen,10_10_4,2023-01-15T14:21:33.277Z,,,b,,,315,500.21899999998277,timeout,e.jpg,,,139292.60000002384,139291.456,138791.134,138801.5,138807.727,139307.946,
トライアル,flow.Sequence,10_10,2023-01-15T14:21:33.277Z,,,b,,,315,3350.3980000000156,completion,e.jpg,,,139293,139291.456,135924.665,135926.39999997616,135941.058,139307.946,
空白時間1 (0.5秒),canvas.Screen,10_11_0,2023-01-15T14:21:33.777Z,,,d,,,45,499.90499999999884,timeout,eR.jpg,,,139792.5,139791.472,139291.456,139293.20000004768,139307.946,139807.851,
注視(1秒),canvas.Screen,10_11_1,2023-01-15T14:21:34.777Z,,,d,,,45,1000.1579999999958,timeout,eR.jpg,,,140792.39999997616,140791.472,139791.472,139792.80000007153,139807.851,140808.009,
空白時間2 (0.5秒),canvas.Screen,10_11_2,2023-01-15T14:21:35.277Z,,,d,,,45,499.73099999999977,timeout,eR.jpg,,,141292.80000007153,141291.439,140791.472,140792.70000004768,140808.009,141307.74,
刺激提示,canvas.Screen,10_11_3,2023-01-15T14:21:36.153Z,,,d,true,d,45,860.2600000000093,response,eR.jpg,d,keypress(j),142168.89999997616,142168,141291.439,141293,141307.74,142191.08,
フィードバック(0.5秒),canvas.Screen,10_11_4,2023-01-15T14:21:36.660Z,,,d,,,45,500.3040000000037,timeout,eR.jpg,,,142675.89999997616,142674.786,142174.712,142181.30000007153,142191.08,142691.384,
トライアル,flow.Sequence,10_11,2023-01-15T14:21:36.661Z,,,d,,,45,3366.8399999999965,completion,eR.jpg,,,142676.39999997616,142674.786,139291.456,139293.20000004768,139307.946,142691.384,
空白時間1 (0.5秒),canvas.Screen,10_12_0,2023-01-15T14:21:37.160Z,,,d,,,315,499.98099999999977,timeout,eR.jpg,,,143175.89999997616,143174.845,142674.786,142676.5,142691.384,143191.365,
注視(1秒),canvas.Screen,10_12_1,2023-01-15T14:21:38.160Z,,,d,,,315,1000.0139999999956,timeout,eR.jpg,,,144176.30000007153,144174.878,143174.845,143176.20000004768,143191.365,144191.379,
空白時間2 (0.5秒),canvas.Screen,10_12_2,2023-01-15T14:21:38.660Z,,,d,,,315,499.92500000001746,timeout,eR.jpg,,,144675.80000007153,144674.602,144174.878,144176.60000002384,144191.379,144691.304,
刺激提示,canvas.Screen,10_12_3,2023-01-15T14:21:39.531Z,,,d,true,d,315,854.1959999999963,response,eR.jpg,d,keypress(j),145546.60000002384,145545.5,144674.602,144676.10000002384,144691.304,145574.514,
フィードバック(0.5秒),canvas.Screen,10_12_4,2023-01-15T14:21:40.043Z,,,d,,,315,500.26900000000023,timeout,eR.jpg,,,146059.10000002384,146057.954,145558.142,145564,145574.514,146074.783,
トライアル,flow.Sequence,10_12,2023-01-15T14:21:40.044Z,,,d,,,315,3366.570000000007,completion,eR.jpg,,,146059.5,146057.954,142674.786,142676.5,142691.384,146074.783,
空白時間1 (0.5秒),canvas.Screen,10_13_0,2023-01-15T14:21:40.543Z,,,b,,,135,499.86000000001513,timeout,e.jpg,,,146558.89999997616,146557.923,146057.954,146059.80000007153,146074.783,146574.643,
注視(1秒),canvas.Screen,10_13_1,2023-01-15T14:21:41.543Z,,,b,,,135,1000.1789999999746,timeout,e.jpg,,,147559.10000002384,147558.222,146557.923,146559.20000004768,146574.643,147574.822,
空白時間2 (0.5秒),canvas.Screen,10_13_2,2023-01-15T14:21:42.044Z,,,b,,,135,516.4170000000158,timeout,e.jpg,,,148059.39999997616,148058.241,147558.222,147559.39999997616,147574.822,148091.239,
刺激提示,canvas.Screen,10_13_3,2023-01-15T14:21:43.397Z,,,b,true,b,135,1320.9610000476823,response,e.jpg,b,keypress(f),149413.30000007153,149412.20000004768,148058.241,148059.70000004768,148091.239,149441.291,
フィードバック(0.5秒),canvas.Screen,10_13_4,2023-01-15T14:21:43.910Z,,,b,,,135,500.2509999999893,timeout,e.jpg,,,149925.80000007153,149924.94,149424.673,149437.30000007153,149441.291,149941.542,
トライアル,flow.Sequence,10_13,2023-01-15T14:21:43.910Z,,,b,,,135,3850.1570000000065,completion,e.jpg,,,149926.20000004768,149924.94,146057.954,146059.70000004768,146074.783,149941.542,
空白時間1 (0.5秒),canvas.Screen,10_14_0,2023-01-15T14:21:44.410Z,,,b,,,180,499.76800000001094,timeout,e.jpg,,,150425.70000004768,150424.706,149924.94,149926.39999997616,149941.542,150441.31,
注視(1秒),canvas.Screen,10_14_1,2023-01-15T14:21:45.410Z,,,b,,,180,1000.2619999999879,timeout,e.jpg,,,151426.20000004768,151424.979,150424.706,150426.10000002384,150441.31,151441.572,
空白時間2 (0.5秒),canvas.Screen,10_14_2,2023-01-15T14:21:45.910Z,,,b,,,180,500.0010000000184,timeout,e.jpg,,,151925.89999997616,151924.771,151424.979,151426.5,151441.572,151941.573,
刺激提示,canvas.Screen,10_14_3,2023-01-15T14:21:47.403Z,,,b,true,b,180,1475.926999999996,response,e.jpg,b,keypress(f),153418.60000002384,153417.5,151924.771,151926.10000002384,151941.573,153441.342,
フィードバック(0.5秒),canvas.Screen,10_14_4,2023-01-15T14:21:47.910Z,,,b,,,180,500.30299999998533,timeout,e.jpg,,,153926.30000007153,153925.066,153424.782,153436.5,153441.342,153941.645,
トライアル,flow.Sequence,10_14,2023-01-15T14:21:47.911Z,,,b,,,180,3983.524000000005,completion,e.jpg,,,153926.70000004768,153925.066,149924.94,149926.30000007153,149941.542,153941.645,
空白時間1 (0.5秒),canvas.Screen,10_15_0,2023-01-15T14:21:48.410Z,,,b,,,90,499.7960000000021,timeout,e.jpg,,,154425.80000007153,154424.782,153925.066,153926.89999997616,153941.645,154441.441,
注視(1秒),canvas.Screen,10_15_1,2023-01-15T14:21:49.410Z,,,b,,,90,1000.244000000006,timeout,e.jpg,,,155426.30000007153,155425.109,154424.782,154426,154441.441,155441.685,
空白時間2 (0.5秒),canvas.Screen,10_15_2,2023-01-15T14:21:49.910Z,,,b,,,90,499.7870000000112,timeout,e.jpg,,,155926.10000002384,155924.958,155425.109,155426.5,155441.685,155941.472,
刺激提示,canvas.Screen,10_15_3,2023-01-15T14:21:50.600Z,,,b,true,b,90,673.3280000715167,response,e.jpg,b,keypress(f),156615.60000002384,156614.80000007153,155924.958,155926.30000007153,155941.472,156624.717,
フィードバック(0.5秒),canvas.Screen,10_15_4,2023-01-15T14:21:51.094Z,,,b,,,90,500.0879999999888,timeout,e.jpg,,,157109.70000004768,157108.512,156608.212,156619.10000002384,156624.717,157124.805,
トライアル,flow.Sequence,10_15,2023-01-15T14:21:51.094Z,,,b,,,90,3166.8669999999984,completion,e.jpg,,,157110.20000004768,157108.512,153925.066,153926.89999997616,153941.645,157124.805,
タスクのセット,flow.Loop,10,2023-01-15T14:21:51.095Z,,,,,,,58518.19999999998,completion,,,,157110.39999997616,157108.512,98573.939,98575.89999997616,98590.312,157124.805,
空白時間1 (0.5秒),canvas.Screen,11_0_0,2023-01-15T14:21:51.594Z,,,b,,,315,500.0430000000051,timeout,e.jpg,,,157609.60000002384,157608.478,157108.512,157110.60000002384,157124.805,157624.848,
注視(1秒),canvas.Screen,11_0_1,2023-01-15T14:21:52.594Z,,,b,,,315,1000.0560000000114,timeout,e.jpg,,,158609.39999997616,158608.442,157608.478,157609.80000007153,157624.848,158624.904,
空白時間2 (0.5秒),canvas.Screen,11_0_2,2023-01-15T14:21:53.093Z,,,b,,,315,500.00699999998324,timeout,e.jpg,,,159109.30000007153,159108.222,158608.442,158609.60000002384,158624.904,159124.911,
刺激提示,canvas.Screen,11_0_3,2023-01-15T14:21:54.773Z,,,b,true,b,315,1663.0890000000072,response,e.jpg,b,keypress(f),160788.89999997616,160788,159108.222,159109.5,159124.911,160808.186,
フィードバック(0.5秒),canvas.Screen,11_0_4,2023-01-15T14:21:55.277Z,,,b,,,315,500.14200000002165,timeout,e.jpg,,,161293,161291.905,160791.742,160803.89999997616,160808.186,161308.328,
トライアル,flow.Sequence,11_0,2023-01-15T14:21:55.278Z,,,b,,,315,4167.100000000006,completion,e.jpg,,,161293.39999997616,161291.905,157108.512,157110.60000002384,157124.805,161308.328,
空白時間1 (0.5秒),canvas.Screen,11_1_0,2023-01-15T14:21:55.777Z,,,d,,,135,499.9229999999807,timeout,eR.jpg,,,161792.89999997616,161791.788,161291.905,161293.70000004768,161308.328,161808.251,
注視(1秒),canvas.Screen,11_1_1,2023-01-15T14:21:56.777Z,,,d,,,135,1000.085000000021,timeout,eR.jpg,,,162793.20000004768,162791.934,161791.788,161793.10000002384,161808.251,162808.336,
空白時間2 (0.5秒),canvas.Screen,11_1_2,2023-01-15T14:21:57.278Z,,,d,,,135,500.1049999999814,timeout,eR.jpg,,,163293.30000007153,163291.959,162791.934,162793.5,162808.336,163308.441,
刺激提示,canvas.Screen,11_1_3,2023-01-15T14:21:58.402Z,,,d,true,d,135,1108.0590000000084,response,eR.jpg,d,keypress(j),164417.5,164416.5,163291.959,163293.60000002384,163308.441,164441.536,
フィードバック(0.5秒),canvas.Screen,11_1_4,2023-01-15T14:21:58.910Z,,,d,,,135,500.4520000000193,timeout,eR.jpg,,,164926.39999997616,164925.308,164425.165,164433.89999997616,164441.536,164941.988,
トライアル,flow.Sequence,11_1,2023-01-15T14:21:58.911Z,,,d,,,135,3616.9799999999814,completion,eR.jpg,,,164926.70000004768,164925.308,161291.905,161293.60000002384,161308.328,164941.988,
空白時間1 (0.5秒),canvas.Screen,11_2_0,2023-01-15T14:21:59.410Z,,,d,,,270,499.6900000000023,timeout,eR.jpg,,,165425.80000007153,165425.008,164925.308,164927,164941.988,165441.678,
注視(1秒),canvas.Screen,11_2_1,2023-01-15T14:22:00.410Z,,,d,,,270,1000.2019999999902,timeout,eR.jpg,,,166426.10000002384,166425.367,165425.008,165426,165441.678,166441.88,
空白時間2 (0.5秒),canvas.Screen,11_2_2,2023-01-15T14:22:00.910Z,,,d,,,270,499.73499999998603,timeout,eR.jpg,,,166926.10000002384,166925.027,166425.367,166426.39999997616,166441.88,166941.615,
刺激提示,canvas.Screen,11_2_3,2023-01-15T14:22:01.879Z,,,d,true,d,270,952.4850000238512,response,eR.jpg,d,keypress(j),167895.20000004768,167894.10000002384,166925.027,166926.20000004768,166941.615,167925.062,
フィードバック(0.5秒),canvas.Screen,11_2_4,2023-01-15T14:22:02.394Z,,,d,,,270,499.8969999999972,timeout,eR.jpg,,,168409.60000002384,168408.612,167908.582,167919.20000004768,167925.062,168424.959,
トライアル,flow.Sequence,11_2,2023-01-15T14:22:02.395Z,,,d,,,270,3466.6239999999816,completion,eR.jpg,,,168411,168408.612,164925.308,164926.89999997616,164941.988,168424.959,
空白時間1 (0.5秒),canvas.Screen,11_3_0,2023-01-15T14:22:02.894Z,,,b,,,135,500.1050000000105,timeout,e.jpg,,,168909.89999997616,168908.636,168408.612,168411.39999997616,168424.959,168925.064,
注視(1秒),canvas.Screen,11_3_1,2023-01-15T14:22:03.894Z,,,b,,,135,1000.1349999999802,timeout,e.jpg,,,169909.80000007153,169908.749,168908.636,168910.10000002384,168925.064,169925.199,
空白時間2 (0.5秒),canvas.Screen,11_3_2,2023-01-15T14:22:04.394Z,,,b,,,135,499.85700000001816,timeout,e.jpg,,,170409.80000007153,170408.734,169908.749,169910.10000002384,169925.199,170425.056,
刺激提示,canvas.Screen,11_3_3,2023-01-15T14:22:05.546Z,,,b,true,b,135,1135.6440000476723,response,e.jpg,b,keypress(f),171561.80000007153,171560.70000004768,170408.734,170410.10000002384,170425.056,171591.788,
フィードバック(0.5秒),canvas.Screen,11_3_4,2023-01-15T14:22:06.060Z,,,b,,,135,500.03899999998976,timeout,e.jpg,,,172076.30000007153,172075.198,171575.294,171586.20000004768,171591.788,172091.827,
トライアル,flow.Sequence,11_3,2023-01-15T14:22:06.061Z,,,b,,,135,3650.2390000000014,completion,e.jpg,,,172076.70000004768,172075.198,168408.612,168411.20000004768,168424.959,172091.827,
空白時間1 (0.5秒),canvas.Screen,11_4_0,2023-01-15T14:22:06.560Z,,,b,,,90,499.9649999999965,timeout,e.jpg,,,172575.60000002384,172575.118,172075.198,172077,172091.827,172591.792,
注視(1秒),canvas.Screen,11_4_1,2023-01-15T14:22:07.561Z,,,b,,,90,1000.2360000000044,timeout,e.jpg,,,173576.89999997616,173575.496,172575.118,172575.80000007153,172591.792,173592.028,
空白時間2 (0.5秒),canvas.Screen,11_4_2,2023-01-15T14:22:08.060Z,,,b,,,90,516.4090000000142,timeout,e.jpg,,,174076.30000007153,174075.204,173575.496,173577.10000002384,173592.028,174108.437,
刺激提示,canvas.Screen,11_4_3,2023-01-15T14:22:08.820Z,,,b,true,b,90,725.9629999761528,response,e.jpg,b,keypress(f),174835.39999997616,174834.39999997616,174075.204,174076.5,174108.437,174841.811,
フィードバック(0.5秒),canvas.Screen,11_4_4,2023-01-15T14:22:09.311Z,,,b,,,90,500.0460000000021,timeout,e.jpg,,,175326.30000007153,175325.295,174825.253,174837.30000007153,174841.811,175341.857,
トライアル,flow.Sequence,11_4,2023-01-15T14:22:09.311Z,,,b,,,90,3233.4680000000226,completion,e.jpg,,,175326.80000007153,175325.295,172075.198,172076.89999997616,172091.827,175341.857,
空白時間1 (0.5秒),canvas.Screen,11_5_0,2023-01-15T14:22:09.811Z,,,b,,,45,500.2050000000163,timeout,e.jpg,,,175826.70000004768,175825.534,175325.295,175327,175341.857,175842.062,
注視(1秒),canvas.Screen,11_5_1,2023-01-15T14:22:10.811Z,,,b,,,45,1000.0109999999986,timeout,e.jpg,,,176826.39999997616,176825.429,175825.534,175826.89999997616,175842.062,176842.073,
空白時間2 (0.5秒),canvas.Screen,11_5_2,2023-01-15T14:22:11.311Z,,,b,,,45,500.05799999999,timeout,e.jpg,,,177326.70000004768,177325.582,176825.429,176826.60000002384,176842.073,177342.131,
刺激提示,canvas.Screen,11_5_3,2023-01-15T14:22:11.904Z,,,b,true,b,45,576.869000000006,response,e.jpg,b,keypress(f),177920,177919,177325.582,177326.89999997616,177342.131,177941.875,
フィードバック(0.5秒),canvas.Screen,11_5_4,2023-01-15T14:22:12.411Z,,,b,,,45,500.2639999999956,timeout,e.jpg,,,178426.89999997616,178425.527,177925.607,177937.60000002384,177941.875,178442.139,
トライアル,flow.Sequence,11_5,2023-01-15T14:22:12.411Z,,,b,,,45,3083.670000000013,completion,e.jpg,,,178427.30000007153,178425.527,175325.295,175326.89999997616,175341.857,178442.139,
空白時間1 (0.5秒),canvas.Screen,11_6_0,2023-01-15T14:22:12.910Z,,,b,,,270,499.7870000000112,timeout,e.jpg,,,178926.30000007153,178925.297,178425.527,178427.60000002384,178442.139,178941.926,
注視(1秒),canvas.Screen,11_6_1,2023-01-15T14:22:13.911Z,,,b,,,270,1000.2679999999818,timeout,e.jpg,,,179926.60000002384,179925.525,178925.297,178926.5,178941.926,179942.194,
空白時間2 (0.5秒),canvas.Screen,11_6_2,2023-01-15T14:22:14.411Z,,,b,,,270,516.369000000006,timeout,e.jpg,,,180426.5,180425.584,179925.525,179926.89999997616,179942.194,180458.563,
刺激提示,canvas.Screen,11_6_3,2023-01-15T14:22:15.608Z,,,b,true,b,270,1164.737000071531,response,e.jpg,b,keypress(f),181624.30000007153,181623.30000007153,180425.584,180426.80000007153,180458.563,181641.994,
フィードバック(0.5秒),canvas.Screen,11_6_4,2023-01-15T14:22:16.111Z,,,b,,,270,499.9670000000042,timeout,e.jpg,,,182127,182125.657,181625.376,181634.5,181641.994,182141.961,
トライアル,flow.Sequence,11_6,2023-01-15T14:22:16.111Z,,,b,,,270,3683.518000000011,completion,e.jpg,,,182127.20000004768,182125.657,178425.527,178427.5,178442.139,182141.961,
空白時間1 (0.5秒),canvas.Screen,11_7_0,2023-01-15T14:22:16.611Z,,,d,,,90,500.042999999976,timeout,eR.jpg,,,182626.80000007153,182625.628,182125.657,182127.5,182141.961,182642.004,
注視(1秒),canvas.Screen,11_7_1,2023-01-15T14:22:17.611Z,,,d,,,90,1000.210000000021,timeout,eR.jpg,,,183626.89999997616,183625.711,182625.628,182627.10000002384,182642.004,183642.214,
空白時間2 (0.5秒),canvas.Screen,11_7_2,2023-01-15T14:22:18.111Z,,,d,,,90,500.00500000000466,timeout,eR.jpg,,,184126.60000002384,184125.419,183625.711,183627.10000002384,183642.214,184142.219,
刺激提示,canvas.Screen,11_7_3,2023-01-15T14:22:18.890Z,,,d,true,d,90,762.5810000715137,response,eR.jpg,d,keypress(j),184905.70000004768,184904.80000007153,184125.419,184126.80000007153,184142.219,184925.373,
フィードバック(0.5秒),canvas.Screen,11_7_4,2023-01-15T14:22:19.394Z,,,d,,,90,500.17699999999604,timeout,eR.jpg,,,185410.10000002384,185409.059,184908.795,184909,184925.373,185425.55,
トライアル,flow.Sequence,11_7,2023-01-15T14:22:19.395Z,,,d,,,90,3267.097999999998,completion,eR.jpg,,,185410.5,185409.059,182125.657,182127.39999997616,182141.961,185425.55,
空白時間1 (0.5秒),canvas.Screen,11_8_0,2023-01-15T14:22:19.895Z,,,b,,,180,499.820000000007,timeout,e.jpg,,,185910.89999997616,185909.062,185409.059,185410.80000007153,185425.55,185925.37,
注視(1秒),canvas.Screen,11_8_1,2023-01-15T14:22:20.895Z,,,b,,,180,1000.2810000000172,timeout,e.jpg,,,186910.39999997616,186909.079,185909.062,185911.39999997616,185925.37,186925.651,
空白時間2 (0.5秒),canvas.Screen,11_8_2,2023-01-15T14:22:21.394Z,,,b,,,180,499.95999999999185,timeout,e.jpg,,,187410.10000002384,187409.084,186909.079,186910.60000002384,186925.651,187425.611,
刺激提示,canvas.Screen,11_8_3,2023-01-15T14:22:23.125Z,,,b,true,b,180,1713.9890000238374,response,e.jpg,b,keypress(f),189140.60000002384,189139.60000002384,187409.084,187410.39999997616,187425.611,189184.709,
フィードバック(0.5秒),canvas.Screen,11_8_4,2023-01-15T14:22:23.661Z,,,b,,,180,507.6589999999851,timeout,e.jpg,,,189676.60000002384,189675.62,189142.373,189157.89999997616,189184.709,189692.368,
トライアル,flow.Sequence,11_8,2023-01-15T14:22:23.661Z,,,b,,,180,4250.070000000007,completion,e.jpg,,,189677.10000002384,189675.62,185409.059,185410.70000004768,185425.55,189692.368,
空白時間1 (0.5秒),canvas.Screen,11_9_0,2023-01-15T14:22:24.160Z,,,d,,,45,499.81100000001607,timeout,eR.jpg,,,190176.10000002384,190175.481,189675.62,189677.20000004768,189692.368,190192.179,
注視(1秒),canvas.Screen,11_9_1,2023-01-15T14:22:25.161Z,,,d,,,45,1000.0080000000016,timeout,eR.jpg,,,191176.89999997616,191175.803,190175.481,190176.20000004768,190192.179,191192.187,
空白時間2 (0.5秒),canvas.Screen,11_9_2,2023-01-15T14:22:25.661Z,,,d,,,45,499.9309999999823,timeout,eR.jpg,,,191677,191675.828,191175.803,191177.10000002384,191192.187,191692.118,
刺激提示,canvas.Screen,11_9_3,2023-01-15T14:22:26.415Z,,,d,true,d,45,737.2819999761705,response,eR.jpg,d,keypress(j),192430.5,192429.39999997616,191675.828,191677.20000004768,191692.118,192461.243,
フィードバック(0.5秒),canvas.Screen,11_9_4,2023-01-15T14:22:26.927Z,,,d,,,45,497.6110000000044,timeout,eR.jpg,,,192942.89999997616,192942.221,192425.613,192441.30000007153,192461.243,192958.854,
トライアル,flow.Sequence,11_9,2023-01-15T14:22:26.928Z,,,d,,,45,3249.853000000003,completion,eR.jpg,,,192943.30000007153,192942.221,189675.62,189677.20000004768,189692.368,192958.854,
空白時間1 (0.5秒),canvas.Screen,11_10_0,2023-01-15T14:22:27.427Z,,,d,,,180,500.07500000001164,timeout,eR.jpg,,,193443.10000002384,193442.173,192942.221,192943.5,192958.854,193458.929,
注視(1秒),canvas.Screen,11_10_1,2023-01-15T14:22:28.429Z,,,d,,,180,1000.1059999999998,timeout,eR.jpg,,,194444.39999997616,194442.615,193442.173,193443.30000007153,193458.929,194459.035,
空白時間2 (0.5秒),canvas.Screen,11_10_2,2023-01-15T14:22:28.929Z,,,d,,,180,500.0240000000049,timeout,eR.jpg,,,194944.39999997616,194942.609,194442.615,194444.5,194459.035,194959.059,
刺激提示,canvas.Screen,11_10_3,2023-01-15T14:22:29.881Z,,,d,true,d,180,937.1410000476753,response,eR.jpg,d,keypress(j),195897.10000002384,195896.20000004768,194942.609,194944.5,194959.059,195925.517,
フィードバック(0.5秒),canvas.Screen,11_10_4,2023-01-15T14:22:30.395Z,,,d,,,180,500.2290000000212,timeout,eR.jpg,,,196410.39999997616,196409.281,195908.962,195913.5,195925.517,196425.746,
トライアル,flow.Sequence,11_10,2023-01-15T14:22:30.395Z,,,d,,,180,3450.426999999996,completion,eR.jpg,,,196410.80000007153,196409.281,192942.221,192943.5,192958.854,196425.746,
空白時間1 (0.5秒),canvas.Screen,11_11_0,2023-01-15T14:22:30.894Z,,,b,,,225,499.83399999997346,timeout,e.jpg,,,196910.10000002384,196908.982,196409.281,196411.10000002384,196425.746,196925.58,
注視(1秒),canvas.Screen,11_11_1,2023-01-15T14:22:31.895Z,,,b,,,225,1000.2230000000272,timeout,e.jpg,,,197910.60000002384,197909.302,196908.982,196910.39999997616,196925.58,197925.803,
空白時間2 (0.5秒),canvas.Screen,11_11_2,2023-01-15T14:22:32.394Z,,,b,,,225,499.87099999998463,timeout,e.jpg,,,198409.5,198409.012,197909.302,197910.80000007153,197925.803,198425.674,
刺激提示,canvas.Screen,11_11_3,2023-01-15T14:22:33.493Z,,,b,true,b,225,1081.725999976159,response,e.jpg,b,keypress(f),199508.39999997616,199507.39999997616,198409.012,198409.60000002384,198425.674,199542.494,
フィードバック(0.5秒),canvas.Screen,11_11_4,2023-01-15T14:22:34.011Z,,,b,,,225,500.09399999998277,timeout,e.jpg,,,200027,200025.885,199525.748,199526.10000002384,199542.494,200042.588,
トライアル,flow.Sequence,11_11,2023-01-15T14:22:34.012Z,,,b,,,225,3600.1389999999956,completion,e.jpg,,,200027.39999997616,200025.885,196409.281,196411,196425.746,200042.588,
空白時間1 (0.5秒),canvas.Screen,11_12_0,2023-01-15T14:22:34.511Z,,,d,,,225,499.78900000001886,timeout,eR.jpg,,,200526.80000007153,200525.743,200025.885,200027.70000004768,200042.588,200542.377,
注視(1秒),canvas.Screen,11_12_1,2023-01-15T14:22:35.511Z,,,d,,,225,1000.1609999999928,timeout,eR.jpg,,,201527,201526.027,200525.743,200527,200542.377,201542.538,
空白時間2 (0.5秒),canvas.Screen,11_12_2,2023-01-15T14:22:36.011Z,,,d,,,225,499.94200000001,timeout,eR.jpg,,,202026.89999997616,202025.8,201526.027,201527.20000004768,201542.538,202042.48,
刺激提示,canvas.Screen,11_12_3,2023-01-15T14:22:36.785Z,,,d,true,d,225,756.9199999761477,response,eR.jpg,d,keypress(j),202800.39999997616,202799.39999997616,202025.8,202027.10000002384,202042.48,202809,
フィードバック(0.5秒),canvas.Screen,11_12_4,2023-01-15T14:22:37.278Z,,,d,,,225,500.304999999993,timeout,eR.jpg,,,203293.80000007153,203292.639,202792.463,202803.60000002384,202809,203309.305,
トライアル,flow.Sequence,11_12,2023-01-15T14:22:37.279Z,,,d,,,225,3250.0510000000068,completion,eR.jpg,,,203294.30000007153,203292.639,200025.885,200027.5,200042.588,203309.305,
空白時間1 (0.5秒),canvas.Screen,11_13_0,2023-01-15T14:22:37.778Z,,,d,,,0,499.79000000000815,timeout,eR.jpg,,,203794,203792.465,203292.639,203294.60000002384,203309.305,203809.095,
注視(1秒),canvas.Screen,11_13_1,2023-01-15T14:22:38.778Z,,,d,,,0,1000.2309999999998,timeout,eR.jpg,,,204794,204792.683,203792.465,203794.20000004768,203809.095,204809.326,
空白時間2 (0.5秒),canvas.Screen,11_13_2,2023-01-15T14:22:39.278Z,,,d,,,0,499.99400000000605,timeout,eR.jpg,,,205293.80000007153,205292.503,204792.683,204794.30000007153,204809.326,205309.32,
刺激提示,canvas.Screen,11_13_3,2023-01-15T14:22:40.158Z,,,d,true,d,0,863.2800000238349,response,eR.jpg,d,keypress(j),206173.60000002384,206172.60000002384,205292.503,205294,205309.32,206192.393,
フィードバック(0.5秒),canvas.Screen,11_13_4,2023-01-15T14:22:40.662Z,,,d,,,0,500.125,timeout,eR.jpg,,,206677.39999997616,206676.183,206175.856,206190.70000004768,206192.393,206692.518,
トライアル,flow.Sequence,11_13,2023-01-15T14:22:40.662Z,,,d,,,0,3366.877999999997,completion,eR.jpg,,,206677.70000004768,206676.183,203292.639,203294.39999997616,203309.305,206692.518,
空白時間1 (0.5秒),canvas.Screen,11_14_0,2023-01-15T14:22:41.161Z,,,d,,,315,500.00699999998324,timeout,eR.jpg,,,207177.20000004768,207176.198,206676.183,206678.10000002384,206692.518,207192.525,
注視(1秒),canvas.Screen,11_14_1,2023-01-15T14:22:42.161Z,,,d,,,315,1000.0230000000156,timeout,eR.jpg,,,208177.20000004768,208176.186,207176.198,207177.39999997616,207192.525,208192.548,
空白時間2 (0.5秒),canvas.Screen,11_14_2,2023-01-15T14:22:42.661Z,,,d,,,315,499.8999999999942,timeout,eR.jpg,,,208676.89999997616,208675.928,208176.186,208177.39999997616,208192.548,208692.448,
刺激提示,canvas.Screen,11_14_3,2023-01-15T14:22:43.430Z,,,d,true,d,315,752.051999999996,response,eR.jpg,d,keypress(j),209445.39999997616,209444.5,208675.928,208677.10000002384,208692.448,209488.016,
フィードバック(0.5秒),canvas.Screen,11_14_4,2023-01-15T14:22:43.961Z,,,d,,,315,504.59399999998277,timeout,eR.jpg,,,209976.89999997616,209975.872,209442.798,209457.89999997616,209488.016,209992.61,
トライアル,flow.Sequence,11_14,2023-01-15T14:22:43.962Z,,,d,,,315,3283.353999999992,completion,eR.jpg,,,209977.30000007153,209975.872,206676.183,206677.89999997616,206692.518,209992.61,
空白時間1 (0.5秒),canvas.Screen,11_15_0,2023-01-15T14:22:44.461Z,,,b,,,0,500.1460000000079,timeout,e.jpg,,,210476.89999997616,210475.943,209975.872,209977.60000002384,209992.61,210492.756,
注視(1秒),canvas.Screen,11_15_1,2023-01-15T14:22:45.461Z,,,b,,,0,999.8440000000119,timeout,e.jpg,,,211477.20000004768,211476.087,210475.943,210477.10000002384,210492.756,211492.6,
空白時間2 (0.5秒),canvas.Screen,11_15_2,2023-01-15T14:22:45.961Z,,,b,,,0,499.91599999999744,timeout,e.jpg,,,211977,211976.007,211476.087,211477.30000007153,211492.6,211992.516,
刺激提示,canvas.Screen,11_15_3,2023-01-15T14:22:46.641Z,,,b,true,b,0,663.0840000238386,response,e.jpg,b,keypress(f),212656.60000002384,212655.60000002384,211976.007,211977.30000007153,211992.516,212691.324,
フィードバック(0.5秒),canvas.Screen,11_15_4,2023-01-15T14:22:47.162Z,,,b,,,0,501.3270000000193,timeout,e.jpg,,,213177.60000002384,213176.312,212642.674,212658.39999997616,212691.324,213192.651,
トライアル,flow.Sequence,11_15,2023-01-15T14:22:47.162Z,,,b,,,0,3183.7020000000193,completion,e.jpg,,,213177.89999997616,213176.312,209975.872,209977.5,209992.61,213192.651,
タスクのセット,flow.Loop,11,2023-01-15T14:22:47.162Z,,,,,,,56051.50700000001,completion,,,,213178.20000004768,213176.312,157108.512,157110.60000002384,157124.805,213192.651,
空白時間1 (0.5秒),canvas.Screen,12_0_0,2023-01-15T14:22:47.661Z,,,b,,,315,500.0139999999956,timeout,e.jpg,,,213676.89999997616,213676.161,213176.312,213178.5,213192.651,213692.665,
注視(1秒),canvas.Screen,12_0_1,2023-01-15T14:22:48.662Z,,,b,,,315,1000.0249999999942,timeout,e.jpg,,,214677.39999997616,214676.386,213676.161,213677.10000002384,213692.665,214692.69,
空白時間2 (0.5秒),canvas.Screen,12_0_2,2023-01-15T14:22:49.161Z,,,b,,,315,499.9079999999958,timeout,e.jpg,,,215177,215176.056,214676.386,214677.60000002384,214692.69,215192.598,
刺激提示,canvas.Screen,12_0_3,2023-01-15T14:22:49.810Z,,,b,true,b,315,632.6020000476856,response,e.jpg,b,keypress(f),215826.10000002384,215825.20000004768,215176.056,215177.30000007153,215192.598,215859.283,
フィードバック(0.5秒),canvas.Screen,12_0_4,2023-01-15T14:22:50.328Z,,,b,,,315,500.1020000000135,timeout,e.jpg,,,216344,216342.694,215842.675,215850.70000004768,215859.283,216359.385,
トライアル,flow.Sequence,12_0,2023-01-15T14:22:50.329Z,,,b,,,315,3150.042999999976,completion,e.jpg,,,216344.30000007153,216342.694,213176.312,213178.39999997616,213192.651,216359.385,
空白時間1 (0.5秒),canvas.Screen,12_1_0,2023-01-15T14:22:50.828Z,,,d,,,225,500.2039999999979,timeout,eR.jpg,,,216843.70000004768,216842.8,216342.694,216344.60000002384,216359.385,216859.589,
注視(1秒),canvas.Screen,12_1_1,2023-01-15T14:22:51.828Z,,,d,,,225,999.9249999999884,timeout,eR.jpg,,,217843.80000007153,217842.779,216842.8,216844,216859.589,217859.514,
空白時間2 (0.5秒),canvas.Screen,12_1_2,2023-01-15T14:22:52.328Z,,,d,,,225,499.80100000000675,timeout,eR.jpg,,,218343.80000007153,218342.84,217842.779,217843.89999997616,217859.514,218359.315,
刺激提示,canvas.Screen,12_1_3,2023-01-15T14:22:53.088Z,,,d,true,d,225,744.1849999999977,response,eR.jpg,d,keypress(j),219104,219103.5,218342.84,218344,218359.315,219109.413,
フィードバック(0.5秒),canvas.Screen,12_1_4,2023-01-15T14:22:53.578Z,,,d,,,225,500.0339999999851,timeout,eR.jpg,,,219594,219592.818,219092.813,219104.80000007153,219109.413,219609.447,
トライアル,flow.Sequence,12_1,2023-01-15T14:22:53.579Z,,,d,,,225,3233.43299999999,completion,eR.jpg,,,219594.30000007153,219592.818,216342.694,216344.60000002384,216359.385,219609.447,
空白時間1 (0.5秒),canvas.Screen,12_2_0,2023-01-15T14:22:54.078Z,,,d,,,270,500.2130000000179,timeout,eR.jpg,,,220094.20000004768,220092.773,219592.818,219594.5,219609.447,220109.66,
注視(1秒),canvas.Screen,12_2_1,2023-01-15T14:22:55.078Z,,,d,,,270,999.8500000000058,timeout,eR.jpg,,,221093.89999997616,221092.857,220092.773,220094.5,220109.66,221109.51,
空白時間2 (0.5秒),canvas.Screen,12_2_2,2023-01-15T14:22:55.578Z,,,d,,,270,500.1689999999944,timeout,eR.jpg,,,221593.89999997616,221592.875,221092.857,221094.10000002384,221109.51,221609.679,
刺激提示,canvas.Screen,12_2_3,2023-01-15T14:22:56.414Z,,,d,true,d,270,818.52100004768,response,eR.jpg,d,keypress(j),222429.80000007153,222428.20000004768,221592.875,221594,221609.679,222476.064,
フィードバック(0.5秒),canvas.Screen,12_2_4,2023-01-15T14:22:56.945Z,,,d,,,270,500.18599999998696,timeout,eR.jpg,,,222960.80000007153,222959.84,222459.535,222461.30000007153,222476.064,222976.25,
トライアル,flow.Sequence,12_2,2023-01-15T14:22:56.945Z,,,d,,,270,3350.393000000011,completion,eR.jpg,,,222961.30000007153,222959.84,219592.818,219594.5,219609.447,222976.25,
空白時間1 (0.5秒),canvas.Screen,12_3_0,2023-01-15T14:22:57.445Z,,,b,,,180,499.8960000000079,timeout,e.jpg,,,223460.39999997616,223459.503,222959.84,222961.39999997616,222976.25,223476.146,
注視(1秒),canvas.Screen,12_3_1,2023-01-15T14:22:58.445Z,,,b,,,180,1000.0320000000065,timeout,e.jpg,,,224461,224459.828,223459.503,223460.70000004768,223476.146,224476.178,
空白時間2 (0.5秒),canvas.Screen,12_3_2,2023-01-15T14:22:58.945Z,,,b,,,180,500.04099999999744,timeout,e.jpg,,,224961,224959.81,224459.828,224461.20000004768,224476.178,224976.219,
刺激提示,canvas.Screen,12_3_3,2023-01-15T14:23:00.409Z,,,b,true,b,180,1447.7809999999881,response,e.jpg,b,keypress(f),226424.70000004768,226424,224959.81,224961.10000002384,224976.219,226459.487,
フィードバック(0.5秒),canvas.Screen,12_3_4,2023-01-15T14:23:00.928Z,,,b,,,180,500.25900000002,timeout,e.jpg,,,226943.89999997616,226942.948,226443.174,226447.30000007153,226459.487,226959.746,
トライアル,flow.Sequence,12_3,2023-01-15T14:23:00.928Z,,,b,,,180,3966.698000000004,completion,e.jpg,,,226944.20000004768,226942.948,222959.84,222961.39999997616,222976.25,226959.746,
空白時間1 (0.5秒),canvas.Screen,12_4_0,2023-01-15T14:23:01.428Z,,,b,,,225,499.83499999999185,timeout,e.jpg,,,227443.80000007153,227442.849,226942.948,226944.5,226959.746,227459.581,
注視(1秒),canvas.Screen,12_4_1,2023-01-15T14:23:02.429Z,,,b,,,225,1000.0709999999963,timeout,e.jpg,,,228444.89999997616,228443.263,227442.849,227443.89999997616,227459.581,228459.652,
空白時間2 (0.5秒),canvas.Screen,12_4_2,2023-01-15T14:23:02.928Z,,,b,,,225,516.5739999999932,timeout,e.jpg,,,228943.89999997616,228943.016,228443.263,228445.10000002384,228459.652,228976.226,
刺激提示,canvas.Screen,12_4_3,2023-01-15T14:23:04.492Z,,,b,true,b,225,1529.9740000476886,response,e.jpg,b,keypress(f),230507.30000007153,230506.20000004768,228943.016,228944.20000004768,228976.226,230542.886,
フィードバック(0.5秒),canvas.Screen,12_4_4,2023-01-15T14:23:05.012Z,,,b,,,225,500.1110000000044,timeout,e.jpg,,,231027.39999997616,231026.351,230526.368,230532,230542.886,231042.997,
トライアル,flow.Sequence,12_4,2023-01-15T14:23:05.012Z,,,b,,,225,4066.6049999999814,completion,e.jpg,,,231027.89999997616,231026.351,226942.948,226944.39999997616,226959.746,231042.997,
空白時間1 (0.5秒),canvas.Screen,12_5_0,2023-01-15T14:23:05.512Z,,,d,,,180,500.22200000000885,timeout,eR.jpg,,,231527.70000004768,231526.675,231026.351,231028,231042.997,231543.219,
注視(1秒),canvas.Screen,12_5_1,2023-01-15T14:23:06.512Z,,,d,,,180,1000.0570000000007,timeout,eR.jpg,,,232527.5,232526.417,231526.675,231527.89999997616,231543.219,232543.276,
空白時間2 (0.5秒),canvas.Screen,12_5_2,2023-01-15T14:23:07.012Z,,,d,,,180,516.3899999999849,timeout,eR.jpg,,,233027.70000004768,233026.728,232526.417,232527.70000004768,232543.276,233059.666,
刺激提示,canvas.Screen,12_5_3,2023-01-15T14:23:09.136Z,,,d,true,d,180,2091.2339999761607,response,eR.jpg,d,keypress(j),235151.89999997616,235150.89999997616,233026.728,233028,233059.666,235176.449,
フィードバック(0.5秒),canvas.Screen,12_5_4,2023-01-15T14:23:09.645Z,,,d,,,180,499.93799999999464,timeout,eR.jpg,,,235661,235659.795,235159.821,235164.20000004768,235176.449,235676.387,
トライアル,flow.Sequence,12_5,2023-01-15T14:23:09.646Z,,,d,,,180,4616.79800000001,completion,eR.jpg,,,235661.30000007153,235659.795,231026.351,231027.89999997616,231042.997,235676.387,
空白時間1 (0.5秒),canvas.Screen,12_6_0,2023-01-15T14:23:10.145Z,,,d,,,315,500.1280000000261,timeout,eR.jpg,,,236161.20000004768,236160.017,235659.795,235661.60000002384,235676.387,236176.515,
注視(1秒),canvas.Screen,12_6_1,2023-01-15T14:23:11.145Z,,,d,,,315,999.9799999999814,timeout,eR.jpg,,,237161,237159.991,236160.017,236161.39999997616,236176.515,237176.495,
空白時間2 (0.5秒),canvas.Screen,12_6_2,2023-01-15T14:23:11.645Z,,,d,,,315,500.0010000000184,timeout,eR.jpg,,,237661,237659.996,237159.991,237161.20000004768,237176.495,237676.496,
刺激提示,canvas.Screen,12_6_3,2023-01-15T14:23:12.402Z,,,d,true,d,315,740.5039999999863,response,eR.jpg,d,keypress(j),238417.80000007153,238417,237659.996,237661.30000007153,237676.496,238443.059,
フィードバック(0.5秒),canvas.Screen,12_6_4,2023-01-15T14:23:12.912Z,,,d,,,315,500.13099999999395,timeout,eR.jpg,,,238927.70000004768,238926.808,238426.491,238435,238443.059,238943.19,
トライアル,flow.Sequence,12_6,2023-01-15T14:23:12.912Z,,,d,,,315,3250.421000000002,completion,eR.jpg,,,238928.20000004768,238926.808,235659.795,235661.5,235676.387,238943.19,
空白時間1 (0.5秒),canvas.Screen,12_7_0,2023-01-15T14:23:13.413Z,,,b,,,135,499.94200000001,timeout,e.jpg,,,239428.89999997616,239426.488,238926.808,238928.39999997616,238943.19,239443.132,
注視(1秒),canvas.Screen,12_7_1,2023-01-15T14:23:14.412Z,,,b,,,135,1000.2770000000019,timeout,e.jpg,,,240427.80000007153,240426.768,239426.488,239429.20000004768,239443.132,240443.409,
空白時間2 (0.5秒),canvas.Screen,12_7_2,2023-01-15T14:23:14.912Z,,,b,,,135,499.8039999999746,timeout,e.jpg,,,240927.5,240926.571,240426.768,240428,240443.409,240943.213,
刺激提示,canvas.Screen,12_7_3,2023-01-15T14:23:16.133Z,,,b,true,b,135,1204.387000023853,response,e.jpg,b,keypress(f),242148.39999997616,242147.60000002384,240926.571,240927.70000004768,240943.213,242176.709,
フィードバック(0.5秒),canvas.Screen,12_7_4,2023-01-15T14:23:16.646Z,,,b,,,135,500.10800000000745,timeout,e.jpg,,,242661.30000007153,242660.133,242160.297,242165.39999997616,242176.709,242676.817,
トライアル,flow.Sequence,12_7,2023-01-15T14:23:16.646Z,,,b,,,135,3716.9429999999993,completion,e.jpg,,,242661.70000004768,242660.133,238926.808,238928.30000007153,238943.19,242676.817,
空白時間1 (0.5秒),canvas.Screen,12_8_0,2023-01-15T14:23:17.145Z,,,b,,,0,499.79899999999907,timeout,e.jpg,,,243161.20000004768,243160.237,242660.133,242662,242676.817,243176.616,
注視(1秒),canvas.Screen,12_8_1,2023-01-15T14:23:18.145Z,,,b,,,0,999.9739999999874,timeout,e.jpg,,,244161,244159.993,243160.237,243161.5,243176.616,244176.59,
空白時間2 (0.5秒),canvas.Screen,12_8_2,2023-01-15T14:23:18.645Z,,,b,,,0,499.9290000000037,timeout,e.jpg,,,244661,244659.949,244159.993,244161.30000007153,244176.59,244676.519,
刺激提示,canvas.Screen,12_8_3,2023-01-15T14:23:19.151Z,,,b,true,b,0,489.28100007152534,response,e.jpg,b,keypress(f),245166.60000002384,245165.80000007153,244659.949,244661.20000004768,244676.519,245176.569,
フィードバック(0.5秒),canvas.Screen,12_8_4,2023-01-15T14:23:19.645Z,,,b,,,0,500.0590000000084,timeout,e.jpg,,,245661.30000007153,245660,245160.283,245168.39999997616,245176.569,245676.628,
トライアル,flow.Sequence,12_8,2023-01-15T14:23:19.646Z,,,b,,,0,2983.18299999999,completion,e.jpg,,,245661.60000002384,245660,242660.133,242661.89999997616,242676.817,245676.628,
空白時間1 (0.5秒),canvas.Screen,12_9_0,2023-01-15T14:23:20.146Z,,,b,,,270,499.95000000001164,timeout,e.jpg,,,246161.30000007153,246160.299,245660,245661.89999997616,245676.628,246176.578,
注視(1秒),canvas.Screen,12_9_1,2023-01-15T14:23:21.146Z,,,b,,,270,1000.2770000000019,timeout,e.jpg,,,247161.30000007153,247160.272,246160.299,246162.30000007153,246176.578,247176.855,
空白時間2 (0.5秒),canvas.Screen,12_9_2,2023-01-15T14:23:21.645Z,,,b,,,270,499.81399999998393,timeout,e.jpg,,,247661.20000004768,247660.151,247160.272,247161.70000004768,247176.855,247676.669,
刺激提示,canvas.Screen,12_9_3,2023-01-15T14:23:22.344Z,,,b,true,b,270,682.3310000000056,response,e.jpg,b,keypress(f),248360,248359,247660.151,247661.39999997616,247676.669,248393.375,
フィードバック(0.5秒),canvas.Screen,12_9_4,2023-01-15T14:23:22.862Z,,,b,,,270,499.89100000000326,timeout,e.jpg,,,248877.89999997616,248876.829,248376.91,248384.5,248393.375,248893.266,
トライアル,flow.Sequence,12_9,2023-01-15T14:23:22.863Z,,,b,,,270,3200.201000000001,completion,e.jpg,,,248878.30000007153,248876.829,245660,245661.80000007153,245676.628,248893.266,
空白時間1 (0.5秒),canvas.Screen,12_10_0,2023-01-15T14:23:23.363Z,,,b,,,45,500.07199999998556,timeout,e.jpg,,,249378.39999997616,249377.064,248876.829,248878.60000002384,248893.266,249393.338,
注視(1秒),canvas.Screen,12_10_1,2023-01-15T14:23:24.362Z,,,b,,,45,1000.2540000000154,timeout,e.jpg,,,250378.10000002384,250376.789,249377.064,249378.70000004768,249393.338,250393.592,
空白時間2 (0.5秒),canvas.Screen,12_10_2,2023-01-15T14:23:24.862Z,,,b,,,45,499.72000000000116,timeout,e.jpg,,,250877.70000004768,250876.763,250376.789,250378.39999997616,250393.592,250893.312,
刺激提示,canvas.Screen,12_10_3,2023-01-15T14:23:25.556Z,,,b,true,b,45,677.4880000715202,response,e.jpg,b,keypress(f),251571.80000007153,251570.80000007153,250876.763,250878.80000007153,250893.312,251610.178,
フィードバック(0.5秒),canvas.Screen,12_10_4,2023-01-15T14:23:26.079Z,,,b,,,45,499.82399999999325,timeout,e.jpg,,,252094.89999997616,252093.688,251593.493,251596,251610.178,252110.002,
トライアル,flow.Sequence,12_10,2023-01-15T14:23:26.080Z,,,b,,,45,3200.4219999999914,completion,e.jpg,,,252095.30000007153,252093.688,248876.829,248878.5,248893.266,252110.002,
空白時間1 (0.5秒),canvas.Screen,12_11_0,2023-01-15T14:23:26.579Z,,,b,,,90,500.3489999999874,timeout,e.jpg,,,252594.80000007153,252593.683,252093.688,252095.5,252110.002,252610.351,
注視(1秒),canvas.Screen,12_11_1,2023-01-15T14:23:27.579Z,,,b,,,90,999.9839999999967,timeout,e.jpg,,,253594.89999997616,253593.683,252593.683,252595.10000002384,252610.351,253610.335,
空白時間2 (0.5秒),canvas.Screen,12_11_2,2023-01-15T14:23:28.079Z,,,b,,,90,500.0130000000063,timeout,e.jpg,,,254094.70000004768,254093.735,253593.683,253595.10000002384,253610.335,254110.348,
刺激提示,canvas.Screen,12_11_3,2023-01-15T14:23:28.664Z,,,b,true,b,90,568.55199997616,response,e.jpg,b,keypress(f),254679.70000004768,254678.89999997616,254093.735,254095,254110.348,254693.39,
フィードバック(0.5秒),canvas.Screen,12_11_4,2023-01-15T14:23:29.162Z,,,b,,,90,500.14199999999255,timeout,e.jpg,,,255178.10000002384,255176.893,254677.085,254683.10000002384,254693.39,255193.532,
トライアル,flow.Sequence,12_11,2023-01-15T14:23:29.163Z,,,b,,,90,3066.8910000000033,completion,e.jpg,,,255178.5,255176.893,252093.688,252095.5,252110.002,255193.532,
空白時間1 (0.5秒),canvas.Screen,12_12_0,2023-01-15T14:23:29.662Z,,,d,,,90,499.9659999999858,timeout,eR.jpg,,,255677.80000007153,255676.877,255176.893,255178.80000007153,255193.532,255693.498,
注視(1秒),canvas.Screen,12_12_1,2023-01-15T14:23:30.662Z,,,d,,,90,1000.1730000000098,timeout,eR.jpg,,,256678.20000004768,256677.207,255676.877,255678,255693.498,256693.671,
空白時間2 (0.5秒),canvas.Screen,12_12_2,2023-01-15T14:23:31.162Z,,,d,,,90,516.4679999999935,timeout,eR.jpg,,,257178.20000004768,257177.096,256677.207,256678.39999997616,256693.671,257210.139,
刺激提示,canvas.Screen,12_12_3,2023-01-15T14:23:32.000Z,,,d,true,d,90,805.0610000476881,response,eR.jpg,d,keypress(j),258016.20000004768,258015.20000004768,257177.096,257178.39999997616,257210.139,258043.575,
フィードバック(0.5秒),canvas.Screen,12_12_4,2023-01-15T14:23:32.512Z,,,d,,,90,499.95100000000093,timeout,eR.jpg,,,258527.89999997616,258527.007,258026.954,258028.39999997616,258043.575,258543.526,
トライアル,flow.Sequence,12_12,2023-01-15T14:23:32.513Z,,,d,,,90,3333.475000000006,completion,eR.jpg,,,258528.30000007153,258527.007,255176.893,255178.70000004768,255193.532,258543.526,
空白時間1 (0.5秒),canvas.Screen,12_13_0,2023-01-15T14:23:33.012Z,,,d,,,135,500.07199999998556,timeout,eR.jpg,,,259028.10000002384,259026.974,258527.007,258528.5,258543.526,259043.598,
注視(1秒),canvas.Screen,12_13_1,2023-01-15T14:23:34.012Z,,,d,,,135,999.9899999999907,timeout,eR.jpg,,,260028.10000002384,260027.182,259026.974,259028.39999997616,259043.598,260043.588,
空白時間2 (0.5秒),canvas.Screen,12_13_2,2023-01-15T14:23:34.512Z,,,d,,,135,500.22299999999814,timeout,eR.jpg,,,260527.89999997616,260526.972,260027.182,260028.30000007153,260043.588,260543.811,
刺激提示,canvas.Screen,12_13_3,2023-01-15T14:23:36.408Z,,,d,true,d,135,1878.5889999761712,response,eR.jpg,d,keypress(j),262423.39999997616,262422.39999997616,260526.972,260528.20000004768,260543.811,262460.224,
フィードバック(0.5秒),canvas.Screen,12_13_4,2023-01-15T14:23:36.929Z,,,d,,,135,500.33400000003166,timeout,eR.jpg,,,262944.8000000715,262943.693,262443.81,262456.2000000477,262460.224,262960.558,
トライアル,flow.Sequence,12_13,2023-01-15T14:23:36.929Z,,,d,,,135,4400.167000000016,completion,eR.jpg,,,262945.10000002384,262943.693,258527.007,258528.5,258543.526,262960.558,
空白時間1 (0.5秒),canvas.Screen,12_14_0,2023-01-15T14:23:37.430Z,,,d,,,45,499.71199999999953,timeout,eR.jpg,,,263445.39999997616,263443.668,262943.693,262945.39999997616,262960.558,263460.27,
注視(1秒),canvas.Screen,12_14_1,2023-01-15T14:23:38.429Z,,,d,,,45,1000.0849999999627,timeout,eR.jpg,,,264445,264443.675,263443.668,263445.7000000477,263460.27,264460.355,
空白時間2 (0.5秒),canvas.Screen,12_14_2,2023-01-15T14:23:38.929Z,,,d,,,45,500.1940000000177,timeout,eR.jpg,,,264945,264943.996,264443.675,264445.2000000477,264460.355,264960.549,
刺激提示,canvas.Screen,12_14_3,2023-01-15T14:23:39.835Z,,,d,true,d,45,889.1510000476846,response,eR.jpg,d,keypress(j),265850.60000002384,265849.7000000477,264943.996,264945.2000000477,264960.549,265877.001,
フィードバック(0.5秒),canvas.Screen,12_14_4,2023-01-15T14:23:40.346Z,,,d,,,45,500.0929999999935,timeout,eR.jpg,,,266361.7000000477,266360.639,265860.629,265867.5,265877.001,266377.094,
トライアル,flow.Sequence,12_14,2023-01-15T14:23:40.346Z,,,d,,,45,3400.0810000000056,completion,eR.jpg,,,266362.10000002384,266360.639,262943.693,262945.3000000715,262960.558,266377.094,
空白時間1 (0.5秒),canvas.Screen,12_15_0,2023-01-15T14:23:40.846Z,,,d,,,0,499.9660000000149,timeout,eR.jpg,,,266861.39999997616,266860.419,266360.639,266362.39999997616,266377.094,266877.06,
注視(1秒),canvas.Screen,12_15_1,2023-01-15T14:23:41.846Z,,,d,,,0,1000.0650000000023,timeout,eR.jpg,,,267861.8000000715,267860.754,266860.419,266861.5,266877.06,267877.125,
空白時間2 (0.5秒),canvas.Screen,12_15_2,2023-01-15T14:23:42.346Z,,,d,,,0,516.5760000000009,timeout,eR.jpg,,,268362,268360.774,267860.754,267862,267877.125,268393.701,
刺激提示,canvas.Screen,12_15_3,2023-01-15T14:23:43.004Z,,,d,true,d,0,624.9990000476828,response,eR.jpg,d,keypress(j),269019.60000002384,269018.7000000477,268360.774,268362.2000000477,268393.701,269027.116,
フィードバック(0.5秒),canvas.Screen,12_15_4,2023-01-15T14:23:43.495Z,,,d,,,0,499.91500000003725,timeout,eR.jpg,,,269511.10000002384,269510.466,269010.46,269021.60000002384,269027.116,269527.031,
トライアル,flow.Sequence,12_15,2023-01-15T14:23:43.496Z,,,d,,,0,3133.372000000032,completion,eR.jpg,,,269511.39999997616,269510.466,266360.639,266362.3000000715,266377.094,269527.031,
タスクのセット,flow.Loop,12,2023-01-15T14:23:43.496Z,,,,,,,56317.815,completion,,,,269511.60000002384,269510.466,213176.312,213178.39999997616,213192.651,269527.031,
空白時間1 (0.5秒),canvas.Screen,13_0_0,2023-01-15T14:23:43.996Z,,,b,,,180,500.2820000000065,timeout,e.jpg,,,270011.89999997616,270010.805,269510.466,269511.7000000477,269527.031,270027.313,
注視(1秒),canvas.Screen,13_0_1,2023-01-15T14:23:44.996Z,,,b,,,180,999.9780000000028,timeout,e.jpg,,,271012.10000002384,271010.836,270010.805,270012.2000000477,270027.313,271027.291,
空白時間2 (0.5秒),canvas.Screen,13_0_2,2023-01-15T14:23:45.496Z,,,b,,,180,499.93799999996554,timeout,e.jpg,,,271511.8000000715,271510.85,271010.836,271012.3000000715,271027.291,271527.229,
刺激提示,canvas.Screen,13_0_3,2023-01-15T14:23:46.633Z,,,b,false,b,180,1120.0710000715335,response,e.jpg,d,keypress(j),272648.3000000715,272647.3000000715,271510.85,271512,271527.229,272677.086,
フィードバック(0.5秒),canvas.Screen,13_0_4,2023-01-15T14:23:47.146Z,,,b,,,180,500.225999999966,timeout,e.jpg,,,273162.10000002384,273160.87,272660.534,272663.8000000715,272677.086,273177.312,
トライアル,flow.Sequence,13_0,2023-01-15T14:23:47.147Z,,,b,,,180,3633.838999999978,completion,e.jpg,,,273162.5,273160.87,269510.466,269511.7000000477,269527.031,273177.312,
空白時間1 (0.5秒),canvas.Screen,13_1_0,2023-01-15T14:23:47.646Z,,,b,,,0,499.88400000002,timeout,e.jpg,,,273661.60000002384,273660.586,273160.87,273162.7000000477,273177.312,273677.196,
注視(1秒),canvas.Screen,13_1_1,2023-01-15T14:23:48.646Z,,,b,,,0,1000.054999999993,timeout,e.jpg,,,274661.7000000477,274660.766,273660.586,273661.89999997616,273677.196,274677.251,
空白時間2 (0.5秒),canvas.Screen,13_1_2,2023-01-15T14:23:49.146Z,,,b,,,0,500.02900000003865,timeout,e.jpg,,,275161.89999997616,275160.892,274660.766,274661.8000000715,274677.251,275177.28,
刺激提示,canvas.Screen,13_1_3,2023-01-15T14:23:49.873Z,,,b,true,b,0,710.3200000238139,response,e.jpg,b,keypress(f),275888.5,275887.60000002384,275160.892,275162.10000002384,275177.28,275910.493,
フィードバック(0.5秒),canvas.Screen,13_1_4,2023-01-15T14:23:50.379Z,,,b,,,0,500.3079999999609,timeout,e.jpg,,,276395.10000002384,276393.959,275893.94,275904.60000002384,275910.493,276410.801,
トライアル,flow.Sequence,13_1,2023-01-15T14:23:50.380Z,,,b,,,0,3216.646999999997,completion,e.jpg,,,276395.5,276393.959,273160.87,273162.7000000477,273177.312,276410.801,
空白時間1 (0.5秒),canvas.Screen,13_2_0,2023-01-15T14:23:50.879Z,,,b,,,270,499.820000000007,timeout,e.jpg,,,276894.89999997616,276893.946,276393.959,276395.8000000715,276410.801,276910.621,
注視(1秒),canvas.Screen,13_2_1,2023-01-15T14:23:51.879Z,,,b,,,270,999.9830000000075,timeout,e.jpg,,,277894.8000000715,277893.98,276893.946,276895.2000000477,276910.621,277910.604,
空白時間2 (0.5秒),canvas.Screen,13_2_2,2023-01-15T14:23:52.380Z,,,b,,,270,516.6500000000233,timeout,e.jpg,,,278395.5,278394.271,277893.98,277895.10000002384,277910.604,278427.254,
刺激提示,canvas.Screen,13_2_3,2023-01-15T14:23:53.148Z,,,b,true,b,270,735.0460000715102,response,e.jpg,b,keypress(f),279163.7000000477,279162.3000000715,278394.271,278395.7000000477,278427.254,279177.216,
フィードバック(0.5秒),canvas.Screen,13_2_4,2023-01-15T14:23:53.646Z,,,b,,,270,500.1599999999744,timeout,e.jpg,,,279662.2000000477,279661.002,279160.681,279165.60000002384,279177.216,279677.376,
トライアル,flow.Sequence,13_2,2023-01-15T14:23:53.647Z,,,b,,,270,3250.201000000001,completion,e.jpg,,,279662.5,279661.002,276393.959,276395.8000000715,276410.801,279677.376,
空白時間1 (0.5秒),canvas.Screen,13_3_0,2023-01-15T14:23:54.146Z,,,d,,,225,500.0030000000261,timeout,eR.jpg,,,280162.2000000477,280160.975,279661.002,279662.8000000715,279677.376,280177.379,
注視(1秒),canvas.Screen,13_3_1,2023-01-15T14:23:55.146Z,,,d,,,225,1000.1379999999772,timeout,eR.jpg,,,281162.3000000715,281161,280160.975,280162.39999997616,280177.379,281177.517,
空白時間2 (0.5秒),canvas.Screen,13_3_2,2023-01-15T14:23:55.646Z,,,d,,,225,499.75599999999395,timeout,eR.jpg,,,281662.10000002384,281660.974,281161,281162.39999997616,281177.517,281677.273,
刺激提示,canvas.Screen,13_3_3,2023-01-15T14:23:56.342Z,,,d,true,d,225,679.1269999761716,response,eR.jpg,d,keypress(j),282357.39999997616,282356.39999997616,281660.974,281662.39999997616,281677.273,282394.263,
フィードバック(0.5秒),canvas.Screen,13_3_4,2023-01-15T14:23:56.863Z,,,d,,,225,499.92700000002515,timeout,eR.jpg,,,282878.5,282877.431,282377.609,282381.7000000477,282394.263,282894.19,
トライアル,flow.Sequence,13_3,2023-01-15T14:23:56.863Z,,,d,,,225,3200.054999999993,completion,eR.jpg,,,282878.8000000715,282877.431,279661.002,279662.60000002384,279677.376,282894.19,
空白時間1 (0.5秒),canvas.Screen,13_4_0,2023-01-15T14:23:57.363Z,,,d,,,270,499.78899999998976,timeout,eR.jpg,,,283378.39999997616,283377.403,282877.431,282879.10000002384,282894.19,283393.979,
注視(1秒),canvas.Screen,13_4_1,2023-01-15T14:23:58.363Z,,,d,,,270,1000.3390000000363,timeout,eR.jpg,,,284378.8000000715,284377.624,283377.403,283378.60000002384,283393.979,284394.318,
空白時間2 (0.5秒),canvas.Screen,13_4_2,2023-01-15T14:23:58.863Z,,,d,,,270,499.9419999999809,timeout,eR.jpg,,,284878.39999997616,284877.441,284377.624,284379.10000002384,284394.318,284894.26,
刺激提示,canvas.Screen,13_4_3,2023-01-15T14:23:59.742Z,,,d,true,d,270,862.7399999999907,response,eR.jpg,d,keypress(j),285757.8000000715,285757,284877.441,284878.60000002384,284894.26,285777.355,
フィードバック(0.5秒),canvas.Screen,13_4_4,2023-01-15T14:24:00.246Z,,,d,,,270,500.27900000003865,timeout,eR.jpg,,,286262.10000002384,286260.865,285760.799,285775.89999997616,285777.355,286277.634,
トライアル,flow.Sequence,13_4,2023-01-15T14:24:00.247Z,,,d,,,270,3366.6749999999884,completion,eR.jpg,,,286262.5,286260.865,282877.431,282878.89999997616,282894.19,286277.634,
空白時間1 (0.5秒),canvas.Screen,13_5_0,2023-01-15T14:24:00.746Z,,,b,,,315,499.8429999999935,timeout,e.jpg,,,286762.2000000477,286761.026,286260.865,286262.8000000715,286277.634,286777.477,
注視(1秒),canvas.Screen,13_5_1,2023-01-15T14:24:01.746Z,,,b,,,315,1000.0709999999963,timeout,e.jpg,,,287761.89999997616,287760.883,286761.026,286762.5,286777.477,287777.548,
空白時間2 (0.5秒),canvas.Screen,13_5_2,2023-01-15T14:24:02.246Z,,,b,,,315,499.8619999999646,timeout,e.jpg,,,288262.10000002384,288261.158,287760.883,287762.10000002384,287777.548,288277.41,
刺激提示,canvas.Screen,13_5_3,2023-01-15T14:24:02.876Z,,,b,true,b,315,613.5900000000256,response,e.jpg,b,keypress(f),288891.89999997616,288891,288261.158,288262.3000000715,288277.41,288910.789,
フィードバック(0.5秒),canvas.Screen,13_5_4,2023-01-15T14:24:03.379Z,,,b,,,315,500.10600000002887,timeout,e.jpg,,,289395.2000000477,289394.279,288894.388,288894,288910.789,289410.895,
トライアル,flow.Sequence,13_5,2023-01-15T14:24:03.380Z,,,b,,,315,3116.6449999999604,completion,e.jpg,,,289395.5,289394.279,286260.865,286262.7000000477,286277.634,289410.895,
空白時間1 (0.5秒),canvas.Screen,13_6_0,2023-01-15T14:24:03.880Z,,,d,,,45,500.20799999998417,timeout,eR.jpg,,,289895.39999997616,289894.39,289394.279,289395.7000000477,289410.895,289911.103,
注視(1秒),canvas.Screen,13_6_1,2023-01-15T14:24:04.879Z,,,d,,,45,999.6909999999916,timeout,eR.jpg,,,290895.2000000477,290894.278,289894.39,289895.7000000477,289911.103,290910.794,
空白時間2 (0.5秒),canvas.Screen,13_6_2,2023-01-15T14:24:05.380Z,,,d,,,45,500.20900000003166,timeout,eR.jpg,,,291395.39999997616,291394.263,290894.278,290895.39999997616,290910.794,291411.003,
刺激提示,canvas.Screen,13_6_3,2023-01-15T14:24:06.135Z,,,d,true,d,45,738.2970000714995,response,eR.jpg,d,keypress(j),292150.3000000715,292149.3000000715,291394.263,291395.60000002384,291411.003,292177.511,
フィードバック(0.5秒),canvas.Screen,13_6_4,2023-01-15T14:24:06.646Z,,,d,,,45,500.0669999999809,timeout,eR.jpg,,,292661.89999997616,292660.965,292161.25,292165.8000000715,292177.511,292677.578,
トライアル,flow.Sequence,13_6,2023-01-15T14:24:06.647Z,,,d,,,45,3250.070000000007,completion,eR.jpg,,,292662.3000000715,292660.965,289394.279,289395.60000002384,289410.895,292677.578,
空白時間1 (0.5秒),canvas.Screen,13_7_0,2023-01-15T14:24:07.146Z,,,b,,,45,500.0030000000261,timeout,e.jpg,,,293161.89999997616,293160.955,292660.965,292662.60000002384,292677.578,293177.581,
注視(1秒),canvas.Screen,13_7_1,2023-01-15T14:24:08.147Z,,,b,,,45,1000.2430000000168,timeout,e.jpg,,,294162.39999997616,294161.294,293160.955,293162.2000000477,293177.581,294177.824,
空白時間2 (0.5秒),canvas.Screen,13_7_2,2023-01-15T14:24:08.646Z,,,b,,,45,499.7170000000042,timeout,e.jpg,,,294662.2000000477,294661.308,294161.294,294162.60000002384,294177.824,294677.541,
刺激提示,canvas.Screen,13_7_3,2023-01-15T14:24:09.393Z,,,b,true,b,45,730.1590000476572,response,e.jpg,b,keypress(f),295408.7000000477,295407.7000000477,294661.308,294662.39999997616,294677.541,295427.834,
フィードバック(0.5秒),canvas.Screen,13_7_4,2023-01-15T14:24:09.896Z,,,b,,,45,499.87900000001537,timeout,e.jpg,,,295911.60000002384,295911.011,295411.123,295410.7000000477,295427.834,295927.713,
トライアル,flow.Sequence,13_7,2023-01-15T14:24:09.896Z,,,b,,,45,3233.433000000019,completion,e.jpg,,,295911.89999997616,295911.011,292660.965,292662.5,292677.578,295927.713,
空白時間1 (0.5秒),canvas.Screen,13_8_0,2023-01-15T14:24:10.396Z,,,d,,,0,500.1620000000112,timeout,eR.jpg,,,296412.2000000477,296411.241,295911.011,295912,295927.713,296427.875,
注視(1秒),canvas.Screen,13_8_1,2023-01-15T14:24:11.397Z,,,d,,,0,999.9440000000177,timeout,eR.jpg,,,297412.7000000477,297411.298,296411.241,296412.60000002384,296427.875,297427.819,
空白時間2 (0.5秒),canvas.Screen,13_8_2,2023-01-15T14:24:11.896Z,,,d,,,0,500.100999999966,timeout,eR.jpg,,,297912.2000000477,297911.37,297411.298,297413,297427.819,297927.92,
刺激提示,canvas.Screen,13_8_3,2023-01-15T14:24:12.573Z,,,d,true,d,0,659.5800000000163,response,eR.jpg,d,keypress(j),298588.60000002384,298587.5,297911.37,297912.5,297927.92,298610.946,
フィードバック(0.5秒),canvas.Screen,13_8_4,2023-01-15T14:24:13.080Z,,,d,,,0,500.1589999999851,timeout,eR.jpg,,,299095.60000002384,299094.664,298594.677,298604.39999997616,298610.946,299111.105,
トライアル,flow.Sequence,13_8,2023-01-15T14:24:13.080Z,,,d,,,0,3166.951000000001,completion,eR.jpg,,,299096.10000002384,299094.664,295911.011,295911.89999997616,295927.713,299111.105,
空白時間1 (0.5秒),canvas.Screen,13_9_0,2023-01-15T14:24:13.580Z,,,d,,,315,499.96000000002095,timeout,eR.jpg,,,299595.39999997616,299594.438,299094.664,299096.3000000715,299111.105,299611.065,
注視(1秒),canvas.Screen,13_9_1,2023-01-15T14:24:14.580Z,,,d,,,315,1000.2600000000093,timeout,eR.jpg,,,300595.7000000477,300594.619,299594.438,299595.7000000477,299611.065,300611.325,
空白時間2 (0.5秒),canvas.Screen,13_9_2,2023-01-15T14:24:15.080Z,,,d,,,315,499.6809999999823,timeout,eR.jpg,,,301096,301094.768,300594.619,300596,300611.325,301111.006,
刺激提示,canvas.Screen,13_9_3,2023-01-15T14:24:15.850Z,,,d,true,d,315,753.8939999761642,response,eR.jpg,d,keypress(j),301865.89999997616,301864.89999997616,301094.768,301096.10000002384,301111.006,301894.389,
フィードバック(0.5秒),canvas.Screen,13_9_4,2023-01-15T14:24:16.363Z,,,d,,,315,500.2579999999725,timeout,eR.jpg,,,302379,302378.032,301878.109,301890.2000000477,301894.389,302394.647,
トライアル,flow.Sequence,13_9,2023-01-15T14:24:16.364Z,,,d,,,315,3266.927000000025,completion,eR.jpg,,,302379.39999997616,302378.032,299094.664,299096.2000000477,299111.105,302394.647,
空白時間1 (0.5秒),canvas.Screen,13_10_0,2023-01-15T14:24:16.863Z,,,d,,,135,499.8300000000163,timeout,eR.jpg,,,302878.89999997616,302877.792,302378.032,302379.60000002384,302394.647,302894.477,
注視(1秒),canvas.Screen,13_10_1,2023-01-15T14:24:17.863Z,,,d,,,135,1000.2069999999949,timeout,eR.jpg,,,303879.3000000715,303878.141,302877.792,302879.10000002384,302894.477,303894.684,
空白時間2 (0.5秒),canvas.Screen,13_10_2,2023-01-15T14:24:18.364Z,,,d,,,135,500.0100000000093,timeout,eR.jpg,,,304379.39999997616,304378.161,303878.141,303879.39999997616,303894.684,304394.694,
刺激提示,canvas.Screen,13_10_3,2023-01-15T14:24:19.797Z,,,d,true,d,135,1417.1060000715079,response,eR.jpg,d,keypress(j),305812.7000000477,305811.8000000715,304378.161,304379.60000002384,304394.694,305844.436,
フィードバック(0.5秒),canvas.Screen,13_10_4,2023-01-15T14:24:20.313Z,,,d,,,135,500.0560000000405,timeout,eR.jpg,,,306328.89999997616,306327.878,305827.982,305828.60000002384,305844.436,306344.492,
トライアル,flow.Sequence,13_10,2023-01-15T14:24:20.313Z,,,d,,,135,3933.231000000029,completion,eR.jpg,,,306329.2000000477,306327.878,302378.032,302379.60000002384,302394.647,306344.492,
空白時間1 (0.5秒),canvas.Screen,13_11_0,2023-01-15T14:24:20.813Z,,,d,,,180,500.0799999999581,timeout,eR.jpg,,,306828.89999997616,306827.891,306327.878,306329.5,306344.492,306844.572,
注視(1秒),canvas.Screen,13_11_1,2023-01-15T14:24:21.814Z,,,d,,,180,1000.1940000000177,timeout,eR.jpg,,,307829.3000000715,307828.223,306827.891,306829.2000000477,306844.572,307844.766,
空白時間2 (0.5秒),canvas.Screen,13_11_2,2023-01-15T14:24:22.313Z,,,d,,,180,500.00299999996787,timeout,eR.jpg,,,308329.2000000477,308328.183,307828.223,307829.5,307844.766,308344.769,
刺激提示,canvas.Screen,13_11_3,2023-01-15T14:24:22.992Z,,,d,true,d,180,662.3310000238707,response,eR.jpg,d,keypress(j),309008.10000002384,309007.10000002384,308328.183,308329.5,308344.769,309027.905,
フィードバック(0.5秒),canvas.Screen,13_11_4,2023-01-15T14:24:23.497Z,,,d,,,180,500.1019999999553,timeout,eR.jpg,,,309512.8000000715,309511.565,309011.273,309011.2000000477,309027.905,309528.007,
トライアル,flow.Sequence,13_11,2023-01-15T14:24:23.497Z,,,d,,,180,3167.072999999975,completion,eR.jpg,,,309513.2000000477,309511.565,306327.878,306329.5,306344.492,309528.007,
空白時間1 (0.5秒),canvas.Screen,13_12_0,2023-01-15T14:24:23.996Z,,,b,,,135,499.9569999999949,timeout,e.jpg,,,310012,310011.305,309511.565,309513.39999997616,309528.007,310027.964,
注視(1秒),canvas.Screen,13_12_1,2023-01-15T14:24:24.997Z,,,b,,,135,1000.0130000000354,timeout,e.jpg,,,311012.8000000715,311011.519,310011.305,310012.2000000477,310027.964,311027.977,
空白時間2 (0.5秒),canvas.Screen,13_12_2,2023-01-15T14:24:25.497Z,,,b,,,135,500.1959999999963,timeout,e.jpg,,,311512.5,311511.632,311011.519,311013.2000000477,311027.977,311528.173,
刺激提示,canvas.Screen,13_12_3,2023-01-15T14:24:26.494Z,,,b,true,b,135,981.0270000476739,response,e.jpg,b,keypress(f),312510.10000002384,312509.2000000477,311511.632,311512.89999997616,311528.173,312556.604,
フィードバック(0.5秒),canvas.Screen,13_12_4,2023-01-15T14:24:27.030Z,,,b,,,135,504.94800000003306,timeout,e.jpg,,,313046.10000002384,313044.944,312511.472,312527.60000002384,312556.604,313061.552,
トライアル,flow.Sequence,13_12,2023-01-15T14:24:27.031Z,,,b,,,135,3516.9370000000345,completion,e.jpg,,,313046.60000002384,313044.944,309511.565,309513.39999997616,309528.007,313061.552,
空白時間1 (0.5秒),canvas.Screen,13_13_0,2023-01-15T14:24:27.529Z,,,b,,,225,499.8079999999609,timeout,e.jpg,,,313545.3000000715,313544.681,313044.944,313046.8000000715,313061.552,313561.36,
注視(1秒),canvas.Screen,13_13_1,2023-01-15T14:24:28.530Z,,,b,,,225,1000.2210000000196,timeout,e.jpg,,,314546,314544.976,313544.681,313545.39999997616,313561.36,314561.581,
空白時間2 (0.5秒),canvas.Screen,13_13_2,2023-01-15T14:24:29.030Z,,,b,,,225,499.71000000002095,timeout,e.jpg,,,315045.5,315044.727,314544.976,314546.2000000477,314561.581,315061.291,
刺激提示,canvas.Screen,13_13_3,2023-01-15T14:24:30.017Z,,,b,true,b,225,970.6089999761316,response,e.jpg,b,keypress(f),316032.8000000715,316031.89999997616,315044.727,315045.60000002384,315061.291,316061.432,
フィードバック(0.5秒),canvas.Screen,13_13_4,2023-01-15T14:24:30.530Z,,,b,,,225,500.1790000000037,timeout,e.jpg,,,316545.89999997616,316544.906,316044.737,316045.5,316061.432,316561.611,
トライアル,flow.Sequence,13_13,2023-01-15T14:24:30.530Z,,,b,,,225,3483.353999999992,completion,e.jpg,,,316546.3000000715,316544.906,313044.944,313046.7000000477,313061.552,316561.611,
空白時間1 (0.5秒),canvas.Screen,13_14_0,2023-01-15T14:24:31.030Z,,,d,,,90,499.8099999999977,timeout,eR.jpg,,,317045.7000000477,317044.813,316544.906,316546.5,316561.611,317061.421,
注視(1秒),canvas.Screen,13_14_1,2023-01-15T14:24:32.030Z,,,d,,,90,1000.1000000000349,timeout,eR.jpg,,,318046.2000000477,318044.95,317044.813,317046,317061.421,318061.521,
空白時間2 (0.5秒),canvas.Screen,13_14_2,2023-01-15T14:24:32.530Z,,,d,,,90,500.11999999999534,timeout,eR.jpg,,,318545.8000000715,318544.846,318044.95,318046.39999997616,318061.521,318561.641,
刺激提示,canvas.Screen,13_14_3,2023-01-15T14:24:33.317Z,,,d,true,d,90,770.4590000238386,response,eR.jpg,d,keypress(j),319332.89999997616,319332.10000002384,318544.846,318546.10000002384,318561.641,319344.713,
フィードバック(0.5秒),canvas.Screen,13_14_4,2023-01-15T14:24:33.814Z,,,d,,,90,500.3080000000191,timeout,eR.jpg,,,319829.5,319828.468,319328.144,319336.3000000715,319344.713,319845.021,
トライアル,flow.Sequence,13_14,2023-01-15T14:24:33.814Z,,,d,,,90,3266.857000000018,completion,eR.jpg,,,319829.8000000715,319828.468,316544.906,316546.39999997616,316561.611,319845.021,
空白時間1 (0.5秒),canvas.Screen,13_15_0,2023-01-15T14:24:34.314Z,,,b,,,90,499.8069999999716,timeout,e.jpg,,,320329.39999997616,320328.244,319828.468,319830.10000002384,319845.021,320344.828,
注視(1秒),canvas.Screen,13_15_1,2023-01-15T14:24:35.314Z,,,b,,,90,1000.2270000000135,timeout,e.jpg,,,321329.5,321328.452,320328.244,320329.7000000477,320344.828,321345.055,
空白時間2 (0.5秒),canvas.Screen,13_15_2,2023-01-15T14:24:35.814Z,,,b,,,90,499.9920000000275,timeout,e.jpg,,,321829.60000002384,321828.444,321328.452,321329.89999997616,321345.055,321845.047,
刺激提示,canvas.Screen,13_15_3,2023-01-15T14:24:36.442Z,,,b,true,b,90,612.1530000476632,response,e.jpg,b,keypress(f),322458.2000000477,322457.2000000477,321828.444,321829.8000000715,321845.047,322494.783,
フィードバック(0.5秒),canvas.Screen,13_15_4,2023-01-15T14:24:36.964Z,,,b,,,90,516.7739999999758,timeout,e.jpg,,,322979.60000002384,322978.424,322478.457,322493.39999997616,322494.783,323011.557,
トライアル,flow.Sequence,13_15,2023-01-15T14:24:36.964Z,,,b,,,90,3133.402999999991,completion,e.jpg,,,322980.10000002384,322978.424,319828.468,319830.10000002384,319845.021,323011.557,
タスクのセット,flow.Loop,13,2023-01-15T14:24:36.964Z,,,,,,,53451.39299999998,completion,,,,322980.3000000715,322978.424,269510.466,269511.7000000477,269527.031,323011.557,
休憩,canvas.Screen,14,2023-01-15T14:25:36.982Z,,,,,,,60017.79100000003,timeout,,,,382997.3000000715,382996.289,322978.424,322980.39999997616,323011.557,383029.348,
休憩終了,html.Page,15,2023-01-15T14:25:43.530Z,,,,,,,6516.152000000002,form submission,,,,389545.89999997616,389545.5,382996.289,382997.60000002384,383029.348,389546.278,
イントロ2,html.Page,16,2023-01-15T14:25:46.410Z,,,,,,,2878.9220000476926,form submission,,,,392425.60000002384,392425.2000000477,389513.266,389546.10000002384,389546.278,392429.578,
イントロ3,html.Page,17,2023-01-15T14:25:48.590Z,,,,,,,2175.722000071546,form submission,,,,394605.7000000477,394605.3000000715,392413.289,392425.8000000715,392429.578,394612.997,
イントロ4,html.Page,18,2023-01-15T14:25:51.585Z,,,,,,,2987.20300004771,form submission,,,,397600.60000002384,397600.2000000477,394596.405,394605.8000000715,394612.997,397613.198,
イントロ5,html.Page,19,2023-01-15T14:25:55.251Z,,,,,,,3653.402000023867,form submission,,,,401266.89999997616,401266.60000002384,397596.487,397600.8000000715,397613.198,401279.964,
できるだけ早く正確に,canvas.Screen,20,2023-01-15T14:25:56.248Z,,,,,,,999.8940000000293,timeout,,,,402264.10000002384,402263.197,401263.461,401267.10000002384,401279.964,402279.858,
空白時間1 (0.5秒),canvas.Screen,21_0_0,2023-01-15T14:25:56.749Z,,,b,,,45,500.16399999998976,timeout,2.jpg,,,402764.5,402763.554,402263.197,402264.5,402279.858,402780.022,
注視(1秒),canvas.Screen,21_0_1,2023-01-15T14:25:57.748Z,,,b,,,45,1000.0410000000265,timeout,2.jpg,,,403764.2000000477,403763.271,402763.554,402764.8000000715,402780.022,403780.063,
空白時間2 (0.5秒),canvas.Screen,21_0_2,2023-01-15T14:25:58.249Z,,,b,,,45,516.4159999999683,timeout,2.jpg,,,404264.7000000477,404263.596,403763.271,403764.39999997616,403780.063,404296.479,
刺激提示(練習),canvas.Screen,21_0_3,2023-01-15T14:25:59.181Z,,,b,true,b,45,899.4209999761661,response,2.jpg,b,keypress(f),405197,405195.89999997616,404263.596,404264.8000000715,404296.479,405229.888,
フィードバック(0.5秒),canvas.Screen,21_0_4,2023-01-15T14:25:59.699Z,,,b,,,45,499.9790000000503,timeout,2.jpg,,,405714.60000002384,405713.564,405213.25,405222.8000000715,405229.888,405729.867,
トライアル,flow.Sequence,21_0,2023-01-15T14:25:59.699Z,,,b,,,45,3433.7060000000056,completion,2.jpg,,,405714.89999997616,405713.564,402263.197,402264.3000000715,402279.858,405729.867,
空白時間1 (0.5秒),canvas.Screen,21_1_0,2023-01-15T14:26:00.199Z,,,d,,,90,500.0429999999469,timeout,2R.jpg,,,406214.7000000477,406213.55,405713.564,405715.10000002384,405729.867,406229.91,
注視(1秒),canvas.Screen,21_1_1,2023-01-15T14:26:01.199Z,,,d,,,90,1000.213000000047,timeout,2R.jpg,,,407214.5,407213.522,406213.55,406215,406229.91,407230.123,
空白時間2 (0.5秒),canvas.Screen,21_1_2,2023-01-15T14:26:01.699Z,,,d,,,90,500.04899999999907,timeout,2R.jpg,,,407714.60000002384,407713.543,407213.522,407214.8000000715,407230.123,407730.172,
刺激提示(練習),canvas.Screen,21_1_3,2023-01-15T14:26:02.382Z,,,d,true,d,90,666.2279999761377,response,2R.jpg,d,keypress(j),408397.3000000715,408396.39999997616,407713.543,407714.8000000715,407730.172,408429.89,
フィードバック(0.5秒),canvas.Screen,21_1_4,2023-01-15T14:26:02.899Z,,,d,,,90,500.27799999999115,timeout,2R.jpg,,,408914.60000002384,408913.622,408396.868,408400.5,408429.89,408930.168,
トライアル,flow.Sequence,21_1,2023-01-15T14:26:02.899Z,,,d,,,90,3183.7549999999464,completion,2R.jpg,,,408915.10000002384,408913.622,405713.564,405715.10000002384,405729.867,408930.168,
空白時間1 (0.5秒),canvas.Screen,21_2_0,2023-01-15T14:26:03.398Z,,,b,,,180,499.71999999997206,timeout,2.jpg,,,409414.2000000477,409413.314,408913.622,408915.3000000715,408930.168,409429.888,
注視(1秒),canvas.Screen,21_2_1,2023-01-15T14:26:04.398Z,,,b,,,180,1000.1080000000075,timeout,2.jpg,,,410414.10000002384,410413.374,409413.314,409415.3000000715,409429.888,410429.996,
空白時間2 (0.5秒),canvas.Screen,21_2_2,2023-01-15T14:26:04.899Z,,,b,,,180,500.0350000000326,timeout,2.jpg,,,410914.8000000715,410913.365,410413.374,410414.39999997616,410429.996,410930.031,
刺激提示(練習),canvas.Screen,21_2_3,2023-01-15T14:26:07.030Z,,,b,true,b,180,2114.7690000715083,response,2.jpg,b,keypress(f),413045.7000000477,413044.8000000715,410913.365,410915,410930.031,413080.238,
フィードバック(0.5秒),canvas.Screen,21_2_4,2023-01-15T14:26:07.549Z,,,b,,,180,500.01500000001397,timeout,2.jpg,,,413564.60000002384,413563.599,413063.501,413063.3000000715,413080.238,413580.253,
トライアル,flow.Sequence,21_2,2023-01-15T14:26:07.549Z,,,b,,,180,4633.430999999982,completion,2.jpg,,,413565,413563.599,408913.622,408915.3000000715,408930.168,413580.253,
空白時間1 (0.5秒),canvas.Screen,21_3_0,2023-01-15T14:26:08.048Z,,,d,,,225,499.8199999999488,timeout,2R.jpg,,,414064.2000000477,414063.382,413563.599,413565.2000000477,413580.253,414080.073,
注視(1秒),canvas.Screen,21_3_1,2023-01-15T14:26:09.049Z,,,d,,,225,1000.2260000000242,timeout,2R.jpg,,,415064.39999997616,415063.52,414063.382,414064.39999997616,414080.073,415080.299,
空白時間2 (0.5秒),canvas.Screen,21_3_2,2023-01-15T14:26:09.549Z,,,d,,,225,499.7139999999781,timeout,2R.jpg,,,415564.60000002384,415563.694,415063.52,415064.7000000477,415080.299,415580.013,
