sender,sender_type,sender_id,timestamp,meta,,answer,correct,correctResponse,deg,duration,ended_on,image,response,response_action,time_commit,time_end,time_render,time_run,time_show,time_switch,url
イントロ1,html.Page,0,2023-01-15T05:33:51.448Z,"{""labjs_version"":""20.2.4"",""labjs_build"":{""flavor"":""development"",""commit"":""f5b4a49f956347addd546a832a3327688c2c0fef""},""location"":""https://labjs.felixhenninger.com/api/labjs_preview/index.html"",""userAgent"":""Mozilla/5.0 (Macintosh; Intel Mac OS X 10_15_7) AppleWebKit/537.36 (KHTML, like Gecko) Chrome/108.0.0.0 Safari/537.36"",""platform"":""MacIntel"",""language"":""ja"",""locale"":""ja"",""timeZone"":""Asia/Tokyo"",""timezoneOffset"":-540,""screen_width"":1440,""screen_height"":900,""scroll_width"":1440,""scroll_height"":745,""window_innerWidth"":1440,""window_innerHeight"":793,""devicePixelRatio"":2}",,,,,,4354.829000011921,form submission,,,,4794.099999964237,4793.300000011921,321.809,611,438.471,4638.303,{}
イントロ2,html.Page,1,2023-01-15T05:33:52.737Z,,,,,,,1444.497000011921,form submission,,,,6083.099999964237,6082.800000011921,4621.637,4794.5,4638.303,5921.585,
イントロ3,html.Page,2,2023-01-15T05:33:54.585Z,,,,,,,2009.114999988079,form submission,,,,7931.5,7930.699999988079,5904.919,6083.199999988079,5921.585,7771.511,
イントロ4,html.Page,3,2023-01-15T05:33:54.934Z,,,,,,,508.3889999761577,form submission,,,,8280.5,8279.899999976158,7754.845,7931.699999988079,7771.511,8122.051,
イントロ5,html.Page,4,2023-01-15T05:33:55.457Z,,,,,,,681.4489999999996,form submission,,,,8803.699999988079,8803.5,8105.385,8280.699999988079,8122.051,8672.029,
できるだけ早く正確に,canvas.Screen,5,2023-01-15T05:33:56.347Z,,,,,,,849.9660000000003,timeout,,,,9693,9692.599999964237,8638.697,8803.800000011921,8672.029,9521.995,
空白時間1 (0.5秒),canvas.Screen,6_0_0,2023-01-15T05:33:56.701Z,,,d,,,135,349.98599999999897,timeout,eR.jpg,,,10047.699999988079,10047.399999976158,9692.599999964237,9693.099999964237,9521.995,9871.981,
注視(1秒),canvas.Screen,6_0_1,2023-01-15T05:33:57.542Z,,,d,,,135,849.9660000000003,timeout,eR.jpg,,,10888.5,10888.199999988079,10047.399999976158,10047.800000011921,9871.981,10721.947,
空白時間2 (0.5秒),canvas.Screen,6_0_2,2023-01-15T05:33:57.902Z,,,d,,,135,349.9860000000008,timeout,eR.jpg,,,11248.099999964237,11247.800000011921,10888.199999988079,10888.699999988079,10721.947,11071.933,
刺激提示(練習),canvas.Screen,6_0_3,2023-01-15T05:33:59.249Z,,,d,true,d,135,1514.9669999761572,response,eR.jpg,d,keypress(j),12595.5,12586.899999976158,11247.800000011921,11248.5,11071.933,12438.545,
フィードバック(0.5秒),canvas.Screen,6_0_4,2023-01-15T05:33:59.618Z,,,d,,,135,349.9860000000008,timeout,eR.jpg,,,12964.5,12964.199999988079,12421.879,12596.800000011921,12438.545,12788.531,
トライアル,flow.Sequence,6_0,2023-01-15T05:33:59.619Z,,,d,,,135,3442.2049999880783,completion,eR.jpg,,,12965.199999988079,12964.199999988079,9692.599999964237,9693.099999964237,9521.995,12788.531,
空白時間1 (0.5秒),canvas.Screen,6_1_0,2023-01-15T05:33:59.955Z,,,b,,,270,349.98599999999897,timeout,e.jpg,,,13301.599999964237,13301.199999988079,12964.199999988079,12965.300000011921,12788.531,13138.517,
注視(1秒),canvas.Screen,6_1_1,2023-01-15T05:34:00.802Z,,,b,,,270,833.2999999999993,timeout,e.jpg,,,14148.099999964237,14147.899999976158,13301.199999988079,13301.699999988079,13138.517,13971.817,
空白時間2 (0.5秒),canvas.Screen,6_1_2,2023-01-15T05:34:01.138Z,,,b,,,270,349.9860000000008,timeout,e.jpg,,,14484.5,14484.199999988079,14147.899999976158,14148.199999988079,13971.817,14321.803,
刺激提示(練習),canvas.Screen,6_1_3,2023-01-15T05:34:01.799Z,,,b,true,b,270,819.497000011921,response,e.jpg,b,keypress(f),15145.399999976158,15141.300000011921,14484.199999988079,14484.599999964237,14321.803,15005.109,
フィードバック(0.5秒),canvas.Screen,6_1_4,2023-01-15T05:34:02.180Z,,,b,,,270,349.98599999999897,timeout,e.jpg,,,15526.5,15526.099999964237,14988.443,15147.5,15005.109,15355.095,
トライアル,flow.Sequence,6_1,2023-01-15T05:34:02.180Z,,,b,,,270,2737.5689999642364,completion,e.jpg,,,15526.699999988079,15526.099999964237,12964.199999988079,12965.300000011921,12788.531,15355.095,
空白時間1 (0.5秒),canvas.Screen,6_2_0,2023-01-15T05:34:02.534Z,,,b,,,180,349.9860000000008,timeout,e.jpg,,,15880.5,15880.300000011921,15526.099999964237,15526.800000011921,15355.095,15705.081,
注視(1秒),canvas.Screen,6_2_1,2023-01-15T05:34:03.380Z,,,b,,,180,849.9659999999985,timeout,e.jpg,,,16726.69999998808,16726.5,15880.300000011921,15880.699999988079,15705.081,16555.047,
空白時間2 (0.5秒),canvas.Screen,6_2_2,2023-01-15T05:34:03.730Z,,,b,,,180,349.9860000000008,timeout,e.jpg,,,17076.30000001192,17076,16726.5,16726.899999976158,16555.047,16905.033,
刺激提示(練習),canvas.Screen,6_2_3,2023-01-15T05:34:04.617Z,,,b,true,b,180,1054.4670000000006,response,e.jpg,b,keypress(f),17963.399999976158,17959.5,17076,17076.5,16905.033,17821.663,
フィードバック(0.5秒),canvas.Screen,6_2_4,2023-01-15T05:34:05.002Z,,,b,,,180,350.5139999999992,timeout,e.jpg,,,18348.5,18348.19999998808,17804.997,17979.19999998808,17821.663,18172.177,
トライアル,flow.Sequence,6_2,2023-01-15T05:34:05.002Z,,,b,,,180,2993.1049999880797,completion,e.jpg,,,18348.69999998808,18348.19999998808,15526.099999964237,15526.699999988079,15355.095,18172.177,
空白時間1 (0.5秒),canvas.Screen,6_3_0,2023-01-15T05:34:05.301Z,,,d,,,315,299.9880000000012,timeout,eR.jpg,,,18647.5,18647.30000001192,18348.19999998808,18348.80000001192,18172.177,18472.165,
注視(1秒),canvas.Screen,6_3_1,2023-01-15T05:34:06.141Z,,,d,,,315,849.9660000000003,timeout,eR.jpg,,,19487.69999998808,19487.399999976158,18647.30000001192,18647.69999998808,18472.165,19322.131,
空白時間2 (0.5秒),canvas.Screen,6_3_2,2023-01-15T05:34:06.502Z,,,d,,,315,349.98599999999715,timeout,eR.jpg,,,19848.099999964237,19847.80000001192,19487.399999976158,19487.899999976158,19322.131,19672.117,
刺激提示(練習),canvas.Screen,6_3_3,2023-01-15T05:34:07.406Z,,,d,true,d,315,1076.5829999880807,response,eR.jpg,d,keypress(j),20752.19999998808,20748.69999998808,19847.80000001192,19848.19999998808,19672.117,20605.413,
フィードバック(0.5秒),canvas.Screen,6_3_4,2023-01-15T05:34:07.780Z,,,d,,,315,349.9860000000008,timeout,eR.jpg,,,21126.5,21126.19999998808,20588.747,20753.099999964237,20605.413,20955.399,
トライアル,flow.Sequence,6_3,2023-01-15T05:34:07.780Z,,,d,,,315,2954.0229999880794,completion,eR.jpg,,,21126.69999998808,21126.19999998808,18348.19999998808,18348.69999998808,18172.177,20955.399,
練習試行(e),flow.Loop,6,2023-01-15T05:34:07.780Z,,,,,,,11604.204999988078,completion,,,,21126.80000001192,21126.19999998808,9692.599999964237,9693.099999964237,9521.995,20955.399,
イントロ6,html.Page,7,2023-01-15T05:34:10.144Z,,,,,,,2534.800999988078,form submission,,,,23490.5,23490.19999998808,21126.19999998808,21126.899999976158,20955.399,23338.637,
できるだけ早く正確に,canvas.Screen,8,2023-01-15T05:34:11.001Z,,,,,,,833.3000000000029,timeout,,,,24347.69999998808,24347.399999976158,23321.971,23490.69999998808,23338.637,24171.937,
空白時間1 (0.5秒),canvas.Screen,9_0_0,2023-01-15T05:34:11.338Z,,,d,,,135,349.98599999999715,timeout,eR.jpg,,,24684.399999976158,24684.19999998808,24347.399999976158,24348,24171.937,24521.923,
注視(1秒),canvas.Screen,9_0_1,2023-01-15T05:34:12.186Z,,,d,,,135,833.3000000000029,timeout,eR.jpg,,,25532,25531.69999998808,24684.19999998808,24684.5,24521.923,25355.223,
空白時間2 (0.5秒),canvas.Screen,9_0_2,2023-01-15T05:34:12.522Z,,,d,,,135,349.98599999999715,timeout,eR.jpg,,,25868.5,25868.19999998808,25531.69999998808,25532.19999998808,25355.223,25705.209,
刺激提示,canvas.Screen,9_0_3,2023-01-15T05:34:13.346Z,,,d,true,d,135,975.3909999642383,response,eR.jpg,d,keypress(j),26692.099999964237,26680.599999964237,25868.19999998808,25868.69999998808,25705.209,26555.175,
フィードバック(0.5秒),canvas.Screen,9_0_4,2023-01-15T05:34:13.731Z,,,d,,,135,349.9860000000008,timeout,eR.jpg,,,27077.19999998808,27077,26521.843,26702.30000001192,26555.175,26905.161,
トライアル,flow.Sequence,9_0,2023-01-15T05:34:13.731Z,,,d,,,135,2905.0629999999983,completion,eR.jpg,,,27077.5,27077,24347.399999976158,24347.899999976158,24171.937,26905.161,
空白時間1 (0.5秒),canvas.Screen,9_1_0,2023-01-15T05:34:14.082Z,,,b,,,180,349.9860000000008,timeout,e.jpg,,,27428.399999976158,27428.19999998808,27077,27077.5,26905.161,27255.147,
注視(1秒),canvas.Screen,9_1_1,2023-01-15T05:34:14.922Z,,,b,,,180,849.9660000000003,timeout,e.jpg,,,28268.599999964237,28268.30000001192,27428.19999998808,27428.5,27255.147,28105.113,
空白時間2 (0.5秒),canvas.Screen,9_1_2,2023-01-15T05:34:15.283Z,,,b,,,180,350.5249999999978,timeout,e.jpg,,,28629.30000001192,28629.19999998808,28268.30000001192,28268.80000001192,28105.113,28455.638,
刺激提示,canvas.Screen,9_1_3,2023-01-15T05:34:16.079Z,,,b,true,b,180,966.9619999642382,response,e.jpg,b,keypress(f),29425.80000001192,29422.599999964237,28629.19999998808,28629.5,28455.638,29272.272,
フィードバック(0.5秒),canvas.Screen,9_1_4,2023-01-15T05:34:16.444Z,,,b,,,180,349.9860000000008,timeout,e.jpg,,,29790.5,29790.099999964237,29255.606,29427.099999964237,29272.272,29622.258,
トライアル,flow.Sequence,9_1,2023-01-15T05:34:16.444Z,,,b,,,180,2884.938999964237,completion,e.jpg,,,29790.69999998808,29790.099999964237,27077,27077.5,26905.161,29622.258,
空白時間1 (0.5秒),canvas.Screen,9_2_0,2023-01-15T05:34:16.796Z,,,d,,,45,349.98599999999715,timeout,eR.jpg,,,30142,30141.80000001192,29790.099999964237,29790.69999998808,29622.258,29972.244,
注視(1秒),canvas.Screen,9_2_1,2023-01-15T05:34:17.642Z,,,d,,,45,849.9660000000003,timeout,eR.jpg,,,30988.599999964237,30988.19999998808,30141.80000001192,30142.099999964237,29972.244,30822.21,
空白時間2 (0.5秒),canvas.Screen,9_2_2,2023-01-15T05:34:18.002Z,,,d,,,45,349.9860000000008,timeout,eR.jpg,,,31348.099999964237,31347.80000001192,30988.19999998808,30988.69999998808,30822.21,31172.196,
刺激提示,canvas.Screen,9_2_3,2023-01-15T05:34:19.000Z,,,d,true,d,45,1170.5039999880792,response,eR.jpg,d,keypress(j),32346,32342.69999998808,31347.80000001192,31348.30000001192,31172.196,32205.488,
フィードバック(0.5秒),canvas.Screen,9_2_4,2023-01-15T05:34:19.381Z,,,d,,,45,349.98599999999715,timeout,eR.jpg,,,32727.099999964237,32726.899999976158,32188.822,32354.599999964237,32205.488,32555.474,
トライアル,flow.Sequence,9_2,2023-01-15T05:34:19.381Z,,,d,,,45,3104.6419999761565,completion,eR.jpg,,,32727.399999976158,32726.899999976158,29790.099999964237,29790.69999998808,29622.258,32555.474,
空白時間1 (0.5秒),canvas.Screen,9_3_0,2023-01-15T05:34:19.731Z,,,b,,,315,349.9860000000008,timeout,e.jpg,,,33077.59999996424,33077.30000001192,32726.899999976158,32727.399999976158,32555.474,32905.46,
注視(1秒),canvas.Screen,9_3_1,2023-01-15T05:34:20.581Z,,,b,,,315,849.9660000000003,timeout,e.jpg,,,33927.19999998808,33926.89999997616,33077.30000001192,33077.69999998808,32905.46,33755.426,
空白時間2 (0.5秒),canvas.Screen,9_3_2,2023-01-15T05:34:20.930Z,,,b,,,315,349.98599999999715,timeout,e.jpg,,,34276.39999997616,34276.30000001192,33926.89999997616,33927.39999997616,33755.426,34105.412,
刺激提示,canvas.Screen,9_3_3,2023-01-15T05:34:21.485Z,,,b,true,b,315,721.7879999880824,response,e.jpg,b,keypress(f),34831,34827.19999998808,34276.30000001192,34276.5,34105.412,34688.722,
フィードバック(0.5秒),canvas.Screen,9_3_4,2023-01-15T05:34:21.868Z,,,b,,,315,349.98599999999715,timeout,e.jpg,,,35214.09999996424,35213.80000001192,34672.056,34838.69999998808,34688.722,35038.708,
トライアル,flow.Sequence,9_3,2023-01-15T05:34:21.868Z,,,b,,,315,2658.3260000119226,completion,e.jpg,,,35214.30000001192,35213.80000001192,32726.899999976158,32727.399999976158,32555.474,35038.708,
空白時間1 (0.5秒),canvas.Screen,9_4_0,2023-01-15T05:34:22.209Z,,,b,,,225,349.9860000000044,timeout,e.jpg,,,35555.69999998808,35555.5,35213.80000001192,35214.39999997616,35038.708,35388.694,
注視(1秒),canvas.Screen,9_4_1,2023-01-15T05:34:23.060Z,,,b,,,225,849.9660000000003,timeout,e.jpg,,,36406.80000001192,36406.5,35555.5,35555.89999997616,35388.694,36238.66,
空白時間2 (0.5秒),canvas.Screen,9_4_2,2023-01-15T05:34:23.418Z,,,b,,,225,349.98599999999715,timeout,e.jpg,,,36764.39999997616,36764.19999998808,36406.5,36406.89999997616,36238.66,36588.646,
刺激提示,canvas.Screen,9_4_3,2023-01-15T05:34:24.093Z,,,b,true,b,225,847.2539999761575,response,e.jpg,b,keypress(f),37439.5,37435.89999997616,36764.19999998808,36764.59999996424,36588.646,37305.284,
フィードバック(0.5秒),canvas.Screen,9_4_4,2023-01-15T05:34:24.482Z,,,b,,,225,349.98599999999715,timeout,e.jpg,,,37828.59999996424,37828.19999998808,37288.618,37441.59999996424,37305.284,37655.27,
トライアル,flow.Sequence,9_4,2023-01-15T05:34:24.482Z,,,b,,,225,2789.4919999880804,completion,e.jpg,,,37828.80000001192,37828.19999998808,35213.80000001192,35214.39999997616,35038.708,37655.27,
空白時間1 (0.5秒),canvas.Screen,9_5_0,2023-01-15T05:34:24.834Z,,,d,,,0,349.9860000000044,timeout,eR.jpg,,,38180.39999997616,38180.30000001192,37828.19999998808,37828.89999997616,37655.27,38005.256,
注視(1秒),canvas.Screen,9_5_1,2023-01-15T05:34:25.674Z,,,d,,,0,849.9660000000003,timeout,eR.jpg,,,39020,39019.59999996424,38180.30000001192,38180.59999996424,38005.256,38855.222,
空白時間2 (0.5秒),canvas.Screen,9_5_2,2023-01-15T05:34:26.034Z,,,d,,,0,350.5509999999995,timeout,eR.jpg,,,39380.69999998808,39380.30000001192,39019.59999996424,39020.09999996424,38855.222,39205.773,
刺激提示,canvas.Screen,9_5_3,2023-01-15T05:34:26.664Z,,,d,true,d,0,802.0270000119199,response,eR.jpg,d,keypress(j),40010.69999998808,40007.80000001192,39380.30000001192,39380.89999997616,39205.773,39872.413,
フィードバック(0.5秒),canvas.Screen,9_5_4,2023-01-15T05:34:27.052Z,,,d,,,0,349.98599999999715,timeout,eR.jpg,,,40398.09999996424,40397.89999997616,39855.747,40019.59999996424,39872.413,40222.399,
トライアル,flow.Sequence,9_5,2023-01-15T05:34:27.052Z,,,d,,,0,2742.6299999761613,completion,eR.jpg,,,40398.30000001192,40397.89999997616,37828.19999998808,37828.80000001192,37655.27,40222.399,
空白時間1 (0.5秒),canvas.Screen,9_6_0,2023-01-15T05:34:27.386Z,,,d,,,270,333.3199999999997,timeout,eR.jpg,,,40732.5,40732.19999998808,40397.89999997616,40398.69999998808,40222.399,40555.719,
注視(1秒),canvas.Screen,9_6_1,2023-01-15T05:34:28.228Z,,,d,,,270,849.9660000000003,timeout,eR.jpg,,,41574.39999997616,41574.09999996424,40732.19999998808,40732.69999998808,40555.719,41405.685,
空白時間2 (0.5秒),canvas.Screen,9_6_2,2023-01-15T05:34:28.581Z,,,d,,,270,349.9860000000044,timeout,eR.jpg,,,41927.09999996424,41926.89999997616,41574.09999996424,41574.59999996424,41405.685,41755.671,
刺激提示,canvas.Screen,9_6_3,2023-01-15T05:34:29.230Z,,,d,true,d,270,801.528999988077,response,eR.jpg,d,keypress(j),42576.39999997616,42557.19999998808,41926.89999997616,41927.19999998808,41755.671,42422.311,
フィードバック(0.5秒),canvas.Screen,9_6_4,2023-01-15T05:34:29.594Z,,,d,,,270,349.98599999999715,timeout,eR.jpg,,,42940.39999997616,42940.19999998808,42405.645,42577.39999997616,42422.311,42772.297,
トライアル,flow.Sequence,9_6,2023-01-15T05:34:29.594Z,,,d,,,270,2717.8009999880815,completion,eR.jpg,,,42940.69999998808,42940.19999998808,40397.89999997616,40398.39999997616,40222.399,42772.297,
空白時間1 (0.5秒),canvas.Screen,9_7_0,2023-01-15T05:34:29.946Z,,,b,,,45,349.9860000000044,timeout,e.jpg,,,43292.5,43292.19999998808,42940.19999998808,42940.80000001192,42772.297,43122.283,
注視(1秒),canvas.Screen,9_7_1,2023-01-15T05:34:30.786Z,,,b,,,45,833.2999999999956,timeout,e.jpg,,,44132.5,44132.30000001192,43292.19999998808,43292.59999996424,43122.283,43955.583,
空白時間2 (0.5秒),canvas.Screen,9_7_2,2023-01-15T05:34:31.131Z,,,b,,,45,349.9860000000044,timeout,e.jpg,,,44477.09999996424,44476.89999997616,44132.30000001192,44132.69999998808,43955.583,44305.569,
刺激提示,canvas.Screen,9_7_3,2023-01-15T05:34:31.696Z,,,b,true,b,45,734.1309999880759,response,e.jpg,b,keypress(f),45042.69999998808,45039.69999998808,44476.89999997616,44477.30000001192,44305.569,44905.545,
フィードバック(0.5秒),canvas.Screen,9_7_4,2023-01-15T05:34:32.082Z,,,b,,,45,349.9860000000044,timeout,e.jpg,,,45428.39999997616,45428.19999998808,44888.879,45044.19999998808,44905.545,45255.531,
トライアル,flow.Sequence,9_7,2023-01-15T05:34:32.082Z,,,b,,,45,2655.9029999880804,completion,e.jpg,,,45428.69999998808,45428.19999998808,42940.19999998808,42940.80000001192,42772.297,45255.531,
空白時間1 (0.5秒),canvas.Screen,9_8_0,2023-01-15T05:34:32.434Z,,,d,,,90,349.98599999999715,timeout,eR.jpg,,,45780.5,45780.30000001192,45428.19999998808,45428.69999998808,45255.531,45605.517,
注視(1秒),canvas.Screen,9_8_1,2023-01-15T05:34:33.274Z,,,d,,,90,849.9660000000003,timeout,eR.jpg,,,46620.69999998808,46620.30000001192,45780.30000001192,45780.59999996424,45605.517,46455.483,
空白時間2 (0.5秒),canvas.Screen,9_8_2,2023-01-15T05:34:33.637Z,,,d,,,90,349.98599999999715,timeout,eR.jpg,,,46983.19999998808,46982.89999997616,46620.30000001192,46620.89999997616,46455.483,46805.469,
刺激提示,canvas.Screen,9_8_3,2023-01-15T05:34:34.404Z,,,d,true,d,90,941.4309999761608,response,eR.jpg,d,keypress(j),47750.80000001192,47746.89999997616,46982.89999997616,46983.30000001192,46805.469,47605.437,
フィードバック(0.5秒),canvas.Screen,9_8_4,2023-01-15T05:34:34.780Z,,,d,,,90,349.9860000000044,timeout,eR.jpg,,,48127,48126.69999998808,47588.771,47751.89999997616,47605.437,47955.423,
トライアル,flow.Sequence,9_8,2023-01-15T05:34:34.781Z,,,d,,,90,2871.1689999880764,completion,eR.jpg,,,48127.09999996424,48126.69999998808,45428.19999998808,45428.69999998808,45255.531,47955.423,
空白時間1 (0.5秒),canvas.Screen,9_9_0,2023-01-15T05:34:35.130Z,,,d,,,180,349.98599999999715,timeout,eR.jpg,,,48476.09999996424,48475.89999997616,48126.69999998808,48127.19999998808,47955.423,48305.409,
注視(1秒),canvas.Screen,9_9_1,2023-01-15T05:34:35.982Z,,,d,,,180,849.9660000000003,timeout,eR.jpg,,,49328.30000001192,49328,48475.89999997616,48476.39999997616,48305.409,49155.375,
空白時間2 (0.5秒),canvas.Screen,9_9_2,2023-01-15T05:34:36.456Z,,,d,,,180,500.52100000000064,timeout,eR.jpg,,,49802.89999997616,49639.23,49328,49328.39999997616,49155.375,49655.896,
刺激提示,canvas.Screen,9_9_3,2023-01-15T05:34:38.552Z,,,d,false,d,180,2237.6039999999994,response,eR.jpg,b,keypress(f),51899,51893.5,49639.23,49803.19999998808,49655.896,51772.478,
フィードバック(0.5秒),canvas.Screen,9_9_4,2023-01-15T05:34:38.949Z,,,d,,,180,349.98599999999715,timeout,eR.jpg,,,52295.30000001192,52295,51755.812,51917.69999998808,51772.478,52122.464,
トライアル,flow.Sequence,9_9,2023-01-15T05:34:38.949Z,,,d,,,180,4339.5769999999975,completion,eR.jpg,,,52295.59999996424,52295,48126.69999998808,48127.19999998808,47955.423,52122.464,
空白時間1 (0.5秒),canvas.Screen,9_10_0,2023-01-15T05:34:39.253Z,,,b,,,270,299.98799999999756,timeout,e.jpg,,,52599.80000001192,52599.69999998808,52295,52295.59999996424,52122.464,52422.452,
注視(1秒),canvas.Screen,9_10_1,2023-01-15T05:34:40.102Z,,,b,,,270,849.9660000000003,timeout,e.jpg,,,53448.5,53448.19999998808,52599.69999998808,52600,52422.452,53272.418,
空白時間2 (0.5秒),canvas.Screen,9_10_2,2023-01-15T05:34:40.442Z,,,b,,,270,349.9860000000044,timeout,e.jpg,,,53788.59999996424,53788.19999998808,53448.19999998808,53448.80000001192,53272.418,53622.404,
刺激提示,canvas.Screen,9_10_3,2023-01-15T05:34:41.361Z,,,b,true,b,270,1081.7959999880768,response,e.jpg,b,keypress(f),54707.39999997616,54704.19999998808,53788.19999998808,53788.69999998808,53622.404,54555.7,
フィードバック(0.5秒),canvas.Screen,9_10_4,2023-01-15T05:34:41.738Z,,,b,,,270,366.65200000000186,timeout,e.jpg,,,55084.30000001192,55084.09999996424,54539.034,54713.80000001192,54555.7,54922.352,
トライアル,flow.Sequence,9_10,2023-01-15T05:34:41.738Z,,,b,,,270,2961.6359999642373,completion,e.jpg,,,55084.59999996424,55084.09999996424,52295,52295.59999996424,52122.464,54922.352,
空白時間1 (0.5秒),canvas.Screen,9_11_0,2023-01-15T05:34:42.098Z,,,d,,,225,349.9860000000044,timeout,eR.jpg,,,55444.5,55444.30000001192,55084.09999996424,55084.80000001192,54922.352,55272.338,
注視(1秒),canvas.Screen,9_11_1,2023-01-15T05:34:42.938Z,,,d,,,225,849.9659999999931,timeout,eR.jpg,,,56284.39999997616,56284.19999998808,55444.30000001192,55444.69999998808,55272.338,56122.304,
空白時間2 (0.5秒),canvas.Screen,9_11_2,2023-01-15T05:34:43.302Z,,,d,,,225,349.9860000000044,timeout,eR.jpg,,,56648.09999996424,56647.89999997616,56284.19999998808,56284.5,56122.304,56472.29,
刺激提示,canvas.Screen,9_11_3,2023-01-15T05:34:44.074Z,,,d,true,d,225,942.6099999761573,response,eR.jpg,d,keypress(j),57420.09999996424,57414.89999997616,56647.89999997616,56648.30000001192,56472.29,57272.258,
フィードバック(0.5秒),canvas.Screen,9_11_4,2023-01-15T05:34:44.451Z,,,d,,,225,349.98599999999715,timeout,eR.jpg,,,57798.09999996424,57797.80000001192,57255.592,57421.30000001192,57272.258,57622.244,
トライアル,flow.Sequence,9_11,2023-01-15T05:34:44.452Z,,,d,,,225,2875.448000011922,completion,eR.jpg,,,57798.19999998808,57797.80000001192,55084.09999996424,55084.80000001192,54922.352,57622.244,
空白時間1 (0.5秒),canvas.Screen,9_12_0,2023-01-15T05:34:44.786Z,,,d,,,315,333.3199999999997,timeout,eR.jpg,,,58132.39999997616,58132.09999996424,57797.80000001192,57798.30000001192,57622.244,57955.564,
注視(1秒),canvas.Screen,9_12_1,2023-01-15T05:34:45.626Z,,,d,,,315,849.9660000000003,timeout,eR.jpg,,,58972.30000001192,58972.09999996424,58132.09999996424,58132.5,57955.564,58805.53,
空白時間2 (0.5秒),canvas.Screen,9_12_2,2023-01-15T05:34:45.980Z,,,d,,,315,349.9860000000044,timeout,eR.jpg,,,59326.80000001192,59326.5,58972.09999996424,58972.5,58805.53,59155.516,
刺激提示,canvas.Screen,9_12_3,2023-01-15T05:34:46.781Z,,,d,true,d,315,968.8839999761549,response,eR.jpg,d,keypress(j),60127.69999998808,60124.39999997616,59326.5,59327,59155.516,59988.816,
フィードバック(0.5秒),canvas.Screen,9_12_4,2023-01-15T05:34:47.162Z,,,d,,,315,350.5529999999999,timeout,eR.jpg,,,60508.39999997616,60508.19999998808,59972.15,60137.39999997616,59988.816,60339.369,
トライアル,flow.Sequence,9_12,2023-01-15T05:34:47.162Z,,,d,,,315,2885.9559999880803,completion,eR.jpg,,,60508.59999996424,60508.19999998808,57797.80000001192,57798.30000001192,57622.244,60339.369,
空白時間1 (0.5秒),canvas.Screen,9_13_0,2023-01-15T05:34:47.514Z,,,b,,,0,349.9860000000044,timeout,e.jpg,,,60860.39999997616,60860.19999998808,60508.19999998808,60508.69999998808,60339.369,60689.355,
注視(1秒),canvas.Screen,9_13_1,2023-01-15T05:34:48.364Z,,,b,,,0,849.9660000000003,timeout,e.jpg,,,61710.09999996424,61709.89999997616,60860.19999998808,60860.59999996424,60689.355,61539.321,
空白時間2 (0.5秒),canvas.Screen,9_13_2,2023-01-15T05:34:48.714Z,,,b,,,0,349.98599999999715,timeout,e.jpg,,,62060.39999997616,62060.19999998808,61709.89999997616,61710.30000001192,61539.321,61889.307,
刺激提示,canvas.Screen,9_13_3,2023-01-15T05:34:49.312Z,,,b,true,b,0,765.6929999999993,response,e.jpg,b,keypress(f),62658.39999997616,62655,62060.19999998808,62060.59999996424,61889.307,62505.949,
フィードバック(0.5秒),canvas.Screen,9_13_4,2023-01-15T05:34:49.682Z,,,b,,,0,349.98599999999715,timeout,e.jpg,,,63028.59999996424,63028.30000001192,62489.283,62659.5,62505.949,62855.935,
トライアル,flow.Sequence,9_13,2023-01-15T05:34:49.682Z,,,b,,,0,2688.931000011922,completion,e.jpg,,,63028.80000001192,63028.30000001192,60508.19999998808,60508.69999998808,60339.369,62855.935,
空白時間1 (0.5秒),canvas.Screen,9_14_0,2023-01-15T05:34:50.018Z,,,b,,,90,333.3199999999997,timeout,e.jpg,,,63364.09999996424,63363.89999997616,63028.30000001192,63028.80000001192,62855.935,63189.255,
注視(1秒),canvas.Screen,9_14_1,2023-01-15T05:34:50.850Z,,,b,,,90,833.3000000000029,timeout,e.jpg,,,64196.59999996424,64196.30000001192,63363.89999997616,63364.39999997616,63189.255,64022.555,
空白時間2 (0.5秒),canvas.Screen,9_14_2,2023-01-15T05:34:51.194Z,,,b,,,90,349.98599999999715,timeout,e.jpg,,,64540.5,64540.30000001192,64196.30000001192,64196.69999998808,64022.555,64372.541,
刺激提示,canvas.Screen,9_14_3,2023-01-15T05:34:51.883Z,,,b,false,b,90,849.4590000000026,response,e.jpg,d,keypress(j),65229.59999996424,65222,64540.30000001192,64540.5,64372.541,65072.513,
フィードバック(0.5秒),canvas.Screen,9_14_4,2023-01-15T05:34:52.251Z,,,b,,,90,349.9860000000044,timeout,e.jpg,,,65598.09999996424,65597.89999997616,65055.847,65230.80000001192,65072.513,65422.499,
トライアル,flow.Sequence,9_14,2023-01-15T05:34:52.252Z,,,b,,,90,2741.9649999761605,completion,e.jpg,,,65598.30000001192,65597.89999997616,63028.30000001192,63028.80000001192,62855.935,65422.499,
空白時間1 (0.5秒),canvas.Screen,9_15_0,2023-01-15T05:34:52.586Z,,,b,,,135,333.3199999999997,timeout,e.jpg,,,65932.30000001192,65932.19999998808,65597.89999997616,65598.39999997616,65422.499,65755.819,
注視(1秒),canvas.Screen,9_15_1,2023-01-15T05:34:53.425Z,,,b,,,135,849.9660000000003,timeout,e.jpg,,,66771.89999997616,66771.69999998808,65932.19999998808,65932.59999996424,65755.819,66605.785,
空白時間2 (0.5秒),canvas.Screen,9_15_2,2023-01-15T05:34:53.780Z,,,b,,,135,349.9859999999899,timeout,e.jpg,,,67127.09999996424,67126.89999997616,66771.69999998808,66772.09999996424,66605.785,66955.771,
刺激提示,canvas.Screen,9_15_3,2023-01-15T05:34:54.749Z,,,b,true,b,135,1135.0290000119276,response,e.jpg,b,keypress(f),68096,68090.80000001192,67126.89999997616,67127.30000001192,66955.771,67955.731,
フィードバック(0.5秒),canvas.Screen,9_15_4,2023-01-15T05:34:55.130Z,,,b,,,135,349.9860000000044,timeout,e.jpg,,,68476.69999998808,68476.30000001192,67939.065,68104.09999996424,67955.731,68305.717,
トライアル,flow.Sequence,9_15,2023-01-15T05:34:55.130Z,,,b,,,135,3053.8010000119175,completion,e.jpg,,,68476.89999997616,68476.30000001192,65597.89999997616,65598.30000001192,65422.499,68305.717,
タスクのセット,flow.Loop,9,2023-01-15T05:34:55.130Z,,,,,,,44304.363000011916,completion,,,,68477.09999996424,68476.30000001192,24347.399999976158,24347.899999976158,24171.937,68305.717,
空白時間1 (0.5秒),canvas.Screen,10_0_0,2023-01-15T05:34:55.485Z,,,d,,,135,349.9859999999899,timeout,eR.jpg,,,68831.89999997616,68831.59999996424,68476.30000001192,68477.30000001192,68305.717,68655.703,
注視(1秒),canvas.Screen,10_0_1,2023-01-15T05:34:56.322Z,,,d,,,135,849.9660000000003,timeout,eR.jpg,,,69668.5,69668.19999998808,68831.59999996424,68832,68655.703,69505.669,
空白時間2 (0.5秒),canvas.Screen,10_0_2,2023-01-15T05:34:56.682Z,,,d,,,135,349.9860000000044,timeout,eR.jpg,,,70028.5,70028.19999998808,69668.19999998808,69668.59999996424,69505.669,69855.655,
刺激提示,canvas.Screen,10_0_3,2023-01-15T05:34:57.790Z,,,d,true,d,135,1277.4449999642384,response,eR.jpg,d,keypress(j),71136.69999998808,71133.09999996424,70028.19999998808,70028.59999996424,69855.655,70988.943,
フィードバック(0.5秒),canvas.Screen,10_0_4,2023-01-15T05:34:58.290Z,,,d,,,135,500.55899999999383,timeout,eR.jpg,,,71636.5,71472.836,70972.277,71137.59999996424,70988.943,71489.502,
トライアル,flow.Sequence,10_0,2023-01-15T05:34:58.290Z,,,d,,,135,3167.1189999999915,completion,eR.jpg,,,71636.69999998808,71472.836,68476.30000001192,68477.30000001192,68305.717,71489.502,
空白時間1 (0.5秒),canvas.Screen,10_1_0,2023-01-15T05:34:58.658Z,,,d,,,270,349.9860000000044,timeout,eR.jpg,,,72004.5,72004.19999998808,71472.836,71636.80000001192,71489.502,71839.488,
注視(1秒),canvas.Screen,10_1_1,2023-01-15T05:34:59.513Z,,,d,,,270,849.9660000000003,timeout,eR.jpg,,,72860,72859.69999998808,72004.19999998808,72004.59999996424,71839.488,72689.454,
空白時間2 (0.5秒),canvas.Screen,10_1_2,2023-01-15T05:34:59.874Z,,,d,,,270,366.65200000000186,timeout,eR.jpg,,,73220.30000001192,73219.89999997616,72859.69999998808,72860.09999996424,72689.454,73056.106,
刺激提示,canvas.Screen,10_1_3,2023-01-15T05:35:00.867Z,,,d,true,d,270,1154.3940000000002,response,eR.jpg,d,keypress(j),74213.5,74210.5,73219.89999997616,73220.39999997616,73056.106,74072.732,
フィードバック(0.5秒),canvas.Screen,10_1_4,2023-01-15T05:35:01.251Z,,,d,,,270,349.9859999999899,timeout,eR.jpg,,,74598.09999996424,74597.80000001192,74056.066,74225.89999997616,74072.732,74422.718,
トライアル,flow.Sequence,10_1,2023-01-15T05:35:01.252Z,,,d,,,270,3108.298000011928,completion,eR.jpg,,,74598.30000001192,74597.80000001192,71472.836,71636.69999998808,71489.502,74422.718,
空白時間1 (0.5秒),canvas.Screen,10_2_0,2023-01-15T05:35:01.601Z,,,d,,,0,349.9860000000044,timeout,eR.jpg,,,74948.09999996424,74947.80000001192,74597.80000001192,74598.30000001192,74422.718,74772.704,
注視(1秒),canvas.Screen,10_2_1,2023-01-15T05:35:02.442Z,,,d,,,0,849.9660000000003,timeout,eR.jpg,,,75788.5,75788.19999998808,74947.80000001192,74948.30000001192,74772.704,75622.67,
空白時間2 (0.5秒),canvas.Screen,10_2_2,2023-01-15T05:35:02.802Z,,,d,,,0,349.9860000000044,timeout,eR.jpg,,,76148.39999997616,76148.19999998808,75788.19999998808,75788.69999998808,75622.67,75972.656,
刺激提示,canvas.Screen,10_2_3,2023-01-15T05:35:03.381Z,,,d,true,d,0,750.1440000119183,response,eR.jpg,d,keypress(j),76727.30000001192,76722.80000001192,76148.19999998808,76148.59999996424,75972.656,76589.298,
フィードバック(0.5秒),canvas.Screen,10_2_4,2023-01-15T05:35:03.765Z,,,d,,,0,349.9860000000044,timeout,eR.jpg,,,77111.5,77111.30000001192,76572.632,76728.89999997616,76589.298,76939.284,
トライアル,flow.Sequence,10_2,2023-01-15T05:35:03.765Z,,,d,,,0,2688.5820000119274,completion,eR.jpg,,,77111.69999998808,77111.30000001192,74597.80000001192,74598.30000001192,74422.718,76939.284,
空白時間1 (0.5秒),canvas.Screen,10_3_0,2023-01-15T05:35:04.116Z,,,d,,,180,349.9860000000044,timeout,eR.jpg,,,77462.59999996424,77462.5,77111.30000001192,77111.89999997616,76939.284,77289.27,
注視(1秒),canvas.Screen,10_3_1,2023-01-15T05:35:04.954Z,,,d,,,180,833.3000000000029,timeout,eR.jpg,,,78300.39999997616,78300.19999998808,77462.5,77462.69999998808,77289.27,78122.57,
空白時間2 (0.5秒),canvas.Screen,10_3_2,2023-01-15T05:35:05.301Z,,,d,,,180,349.9859999999899,timeout,eR.jpg,,,78647.59999996424,78647.5,78300.19999998808,78300.5,78122.57,78472.556,
刺激提示,canvas.Screen,10_3_3,2023-01-15T05:35:05.902Z,,,d,false,d,180,771.9440000000031,response,eR.jpg,b,keypress(f),79248.80000001192,79244.5,78647.5,78647.80000001192,78472.556,79089.198,
フィードバック(0.5秒),canvas.Screen,10_3_4,2023-01-15T05:35:06.266Z,,,d,,,180,349.9859999999899,timeout,eR.jpg,,,79612.5,79612.30000001192,79072.532,79249.89999997616,79089.198,79439.184,
トライアル,flow.Sequence,10_3,2023-01-15T05:35:06.266Z,,,d,,,180,2673.0160000119213,completion,eR.jpg,,,79612.59999996424,79612.30000001192,77111.30000001192,77111.80000001192,76939.284,79439.184,
空白時間1 (0.5秒),canvas.Screen,10_4_0,2023-01-15T05:35:06.601Z,,,d,,,45,333.320000000007,timeout,eR.jpg,,,79948.30000001192,79947.80000001192,79612.30000001192,79612.80000001192,79439.184,79772.504,
注視(1秒),canvas.Screen,10_4_1,2023-01-15T05:35:07.444Z,,,d,,,45,849.9660000000003,timeout,eR.jpg,,,80790.69999998808,80790.59999996424,79947.80000001192,79948.39999997616,79772.504,80622.47,
空白時間2 (0.5秒),canvas.Screen,10_4_2,2023-01-15T05:35:07.794Z,,,d,,,45,349.9860000000044,timeout,eR.jpg,,,81140.59999996424,81140.30000001192,80790.59999996424,80790.80000001192,80622.47,80972.456,
刺激提示,canvas.Screen,10_4_3,2023-01-15T05:35:08.745Z,,,d,true,d,45,1115.7439999880735,response,eR.jpg,d,keypress(j),82092,82088.19999998808,81140.30000001192,81140.80000001192,80972.456,81955.75,
フィードバック(0.5秒),canvas.Screen,10_4_4,2023-01-15T05:35:09.257Z,,,d,,,45,500.5540000000037,timeout,eR.jpg,,,82603.80000001192,82439.638,81939.084,82104.19999998808,81955.75,82456.304,
トライアル,flow.Sequence,10_4,2023-01-15T05:35:09.257Z,,,d,,,45,3000.4540000000125,completion,eR.jpg,,,82604.09999996424,82439.638,79612.30000001192,79612.69999998808,79439.184,82456.304,
空白時間1 (0.5秒),canvas.Screen,10_5_0,2023-01-15T05:35:09.634Z,,,d,,,225,349.9859999999899,timeout,eR.jpg,,,82980.39999997616,82980.19999998808,82439.638,82604.09999996424,82456.304,82806.29,
注視(1秒),canvas.Screen,10_5_1,2023-01-15T05:35:10.478Z,,,d,,,225,849.9660000000003,timeout,eR.jpg,,,83824.59999996424,83824.30000001192,82980.19999998808,82980.5,82806.29,83656.256,
空白時間2 (0.5秒),canvas.Screen,10_5_2,2023-01-15T05:35:10.835Z,,,d,,,225,349.9860000000044,timeout,eR.jpg,,,84181.69999998808,84181.39999997616,83824.30000001192,83824.69999998808,83656.256,84006.242,
刺激提示,canvas.Screen,10_5_3,2023-01-15T05:35:12.198Z,,,d,true,d,225,1534.1579999761598,response,eR.jpg,d,keypress(j),85544.59999996424,85540.39999997616,84181.39999997616,84181.80000001192,84006.242,85389.52,
フィードバック(0.5秒),canvas.Screen,10_5_4,2023-01-15T05:35:12.564Z,,,d,,,225,349.9859999999899,timeout,eR.jpg,,,85910.5,85910.30000001192,85372.854,85545.5,85389.52,85739.506,
トライアル,flow.Sequence,10_5,2023-01-15T05:35:12.564Z,,,d,,,225,3453.996000011917,completion,eR.jpg,,,85910.69999998808,85910.30000001192,82439.638,82604.09999996424,82456.304,85739.506,
空白時間1 (0.5秒),canvas.Screen,10_6_0,2023-01-15T05:35:12.913Z,,,b,,,180,349.9860000000044,timeout,e.jpg,,,86259.59999996424,86259.39999997616,85910.30000001192,85910.69999998808,85739.506,86089.492,
注視(1秒),canvas.Screen,10_6_1,2023-01-15T05:35:13.758Z,,,b,,,180,849.9660000000003,timeout,e.jpg,,,87104.5,87104.19999998808,86259.39999997616,86259.80000001192,86089.492,86939.458,
空白時間2 (0.5秒),canvas.Screen,10_6_2,2023-01-15T05:35:14.114Z,,,b,,,180,349.9860000000044,timeout,e.jpg,,,87460.39999997616,87460.09999996424,87104.19999998808,87104.59999996424,86939.458,87289.444,
刺激提示,canvas.Screen,10_6_3,2023-01-15T05:35:14.977Z,,,b,true,b,180,1030.155999964234,response,e.jpg,b,keypress(f),88323.80000001192,88319.59999996424,87460.09999996424,87460.59999996424,87289.444,88189.408,
フィードバック(0.5秒),canvas.Screen,10_6_4,2023-01-15T05:35:15.362Z,,,b,,,180,349.9860000000044,timeout,e.jpg,,,88708.69999998808,88708.39999997616,88172.742,88332.30000001192,88189.408,88539.394,
トライアル,flow.Sequence,10_6,2023-01-15T05:35:15.362Z,,,b,,,180,2968.893999976164,completion,e.jpg,,,88709.09999996424,88708.39999997616,85910.30000001192,85910.69999998808,85739.506,88539.394,
空白時間1 (0.5秒),canvas.Screen,10_7_0,2023-01-15T05:35:15.714Z,,,d,,,315,349.9860000000044,timeout,eR.jpg,,,89060.39999997616,89060.19999998808,88708.39999997616,88709.30000001192,88539.394,88889.38,
注視(1秒),canvas.Screen,10_7_1,2023-01-15T05:35:16.556Z,,,d,,,315,849.9660000000003,timeout,eR.jpg,,,89903.30000001192,89903,89060.19999998808,89060.59999996424,88889.38,89739.346,
空白時間2 (0.5秒),canvas.Screen,10_7_2,2023-01-15T05:35:16.914Z,,,d,,,315,349.9859999999899,timeout,eR.jpg,,,90260.5,90260.19999998808,89903,89903.5,89739.346,90089.332,
刺激提示,canvas.Screen,10_7_3,2023-01-15T05:35:17.626Z,,,d,true,d,315,879.1680000000051,response,eR.jpg,d,keypress(j),90973.09999996424,90968.5,90260.19999998808,90260.5,90089.332,90822.636,
フィードバック(0.5秒),canvas.Screen,10_7_4,2023-01-15T05:35:17.996Z,,,d,,,315,349.9860000000044,timeout,eR.jpg,,,91343,91342.80000001192,90805.97,90974.19999998808,90822.636,91172.622,
トライアル,flow.Sequence,10_7,2023-01-15T05:35:17.996Z,,,d,,,315,2803.4060000119207,completion,eR.jpg,,,91343.30000001192,91342.80000001192,88708.39999997616,88709.19999998808,88539.394,91172.622,
空白時間1 (0.5秒),canvas.Screen,10_8_0,2023-01-15T05:35:18.301Z,,,d,,,90,299.98799999999756,timeout,eR.jpg,,,91648.09999996424,91647.80000001192,91342.80000001192,91343.5,91172.622,91472.61,
注視(1秒),canvas.Screen,10_8_1,2023-01-15T05:35:19.141Z,,,d,,,90,849.9660000000003,timeout,eR.jpg,,,92487.80000001192,92487.59999996424,91647.80000001192,91648.19999998808,91472.61,92322.576,
空白時間2 (0.5秒),canvas.Screen,10_8_2,2023-01-15T05:35:19.623Z,,,d,,,90,500.525999999998,timeout,eR.jpg,,,92969.89999997616,92806.436,92487.59999996424,92488,92322.576,92823.102,
刺激提示,canvas.Screen,10_8_3,2023-01-15T05:35:20.382Z,,,d,true,d,90,902.2979999761592,response,eR.jpg,d,keypress(j),93729.19999998808,93725.39999997616,92806.436,92970,92823.102,93589.738,
フィードバック(0.5秒),canvas.Screen,10_8_4,2023-01-15T05:35:20.762Z,,,d,,,90,349.9860000000044,timeout,eR.jpg,,,94108.5,94108.30000001192,93573.072,93733,93589.738,93939.724,
トライアル,flow.Sequence,10_8,2023-01-15T05:35:20.762Z,,,d,,,90,2935.678000011918,completion,eR.jpg,,,94108.69999998808,94108.30000001192,91342.80000001192,91343.5,91172.622,93939.724,
空白時間1 (0.5秒),canvas.Screen,10_9_0,2023-01-15T05:35:21.114Z,,,b,,,0,349.9860000000044,timeout,e.jpg,,,94460.5,94460.19999998808,94108.30000001192,94108.89999997616,93939.724,94289.71,
注視(1秒),canvas.Screen,10_9_1,2023-01-15T05:35:21.953Z,,,b,,,0,833.2999999999884,timeout,e.jpg,,,95300,95299.59999996424,94460.19999998808,94460.59999996424,94289.71,95123.01,
空白時間2 (0.5秒),canvas.Screen,10_9_2,2023-01-15T05:35:22.301Z,,,b,,,0,349.9860000000044,timeout,e.jpg,,,95648.09999996424,95647.80000001192,95299.59999996424,95300.09999996424,95123.01,95472.996,
刺激提示,canvas.Screen,10_9_3,2023-01-15T05:35:22.882Z,,,b,true,b,0,752.3040000119217,response,e.jpg,b,keypress(f),96228.59999996424,96225.30000001192,95647.80000001192,95648.30000001192,95472.996,96089.638,
フィードバック(0.5秒),canvas.Screen,10_9_4,2023-01-15T05:35:23.266Z,,,b,,,0,349.9859999999899,timeout,e.jpg,,,96612.39999997616,96612.19999998808,96072.972,96238.69999998808,96089.638,96439.624,
トライアル,flow.Sequence,10_9,2023-01-15T05:35:23.266Z,,,b,,,0,2672.475999988077,completion,e.jpg,,,96612.80000001192,96612.19999998808,94108.30000001192,94108.80000001192,93939.724,96439.624,
空白時間1 (0.5秒),canvas.Screen,10_10_0,2023-01-15T05:35:23.618Z,,,b,,,270,349.9860000000044,timeout,e.jpg,,,96964.5,96964.30000001192,96612.19999998808,96612.80000001192,96439.624,96789.61,
注視(1秒),canvas.Screen,10_10_1,2023-01-15T05:35:24.461Z,,,b,,,270,849.9660000000003,timeout,e.jpg,,,97807.89999997616,97807.69999998808,96964.30000001192,96964.69999998808,96789.61,97639.576,
空白時間2 (0.5秒),canvas.Screen,10_10_2,2023-01-15T05:35:24.818Z,,,b,,,270,349.9860000000044,timeout,e.jpg,,,98164.5,98164.19999998808,97807.69999998808,97808.09999996424,97639.576,97989.562,
刺激提示,canvas.Screen,10_10_3,2023-01-15T05:35:25.385Z,,,b,true,b,270,738.8379999761528,response,e.jpg,b,keypress(f),98731.89999997616,98728.39999997616,98164.19999998808,98164.89999997616,97989.562,98572.872,
フィードバック(0.5秒),canvas.Screen,10_10_4,2023-01-15T05:35:25.754Z,,,b,,,270,349.9859999999899,timeout,e.jpg,,,99100.5,99100.30000001192,98556.206,98733.09999996424,98572.872,98922.858,
トライアル,flow.Sequence,10_10,2023-01-15T05:35:25.754Z,,,b,,,270,2660.6760000119248,completion,e.jpg,,,99100.69999998808,99100.30000001192,96612.19999998808,96612.80000001192,96439.624,98922.858,
空白時間1 (0.5秒),canvas.Screen,10_11_0,2023-01-15T05:35:26.091Z,,,b,,,225,349.9860000000044,timeout,e.jpg,,,99437.5,99437.19999998808,99100.30000001192,99100.80000001192,98922.858,99272.844,
注視(1秒),canvas.Screen,10_11_1,2023-01-15T05:35:26.938Z,,,b,,,225,849.9660000000003,timeout,e.jpg,,,100284.80000001192,100284.59999996424,99437.19999998808,99437.69999998808,99272.844,100122.81,
空白時間2 (0.5秒),canvas.Screen,10_11_2,2023-01-15T05:35:27.305Z,,,b,,,225,366.65200000000186,timeout,e.jpg,,,100652.5,100652.19999998808,100284.59999996424,100285,100122.81,100489.462,
刺激提示,canvas.Screen,10_11_3,2023-01-15T05:35:27.873Z,,,b,true,b,225,727.0380000000005,response,e.jpg,b,keypress(f),101220,101216.5,100652.19999998808,100652.5,100489.462,101072.772,
フィードバック(0.5秒),canvas.Screen,10_11_4,2023-01-15T05:35:28.251Z,,,b,,,225,349.9860000000044,timeout,e.jpg,,,101598.09999996424,101597.80000001192,101056.106,101221.69999998808,101072.772,101422.758,
トライアル,flow.Sequence,10_11,2023-01-15T05:35:28.251Z,,,b,,,225,2674.942000011928,completion,e.jpg,,,101598.30000001192,101597.80000001192,99100.30000001192,99100.69999998808,98922.858,101422.758,
空白時間1 (0.5秒),canvas.Screen,10_12_0,2023-01-15T05:35:28.601Z,,,b,,,45,349.9860000000044,timeout,e.jpg,,,101947.69999998808,101947.39999997616,101597.80000001192,101598.39999997616,101422.758,101772.744,
注視(1秒),canvas.Screen,10_12_1,2023-01-15T05:35:29.441Z,,,b,,,45,849.9660000000003,timeout,e.jpg,,,102787.69999998808,102787.59999996424,101947.39999997616,101947.69999998808,101772.744,102622.71,
空白時間2 (0.5秒),canvas.Screen,10_12_2,2023-01-15T05:35:29.805Z,,,b,,,45,367.19199999999546,timeout,e.jpg,,,103152.09999996424,103151.89999997616,102787.59999996424,102787.80000001192,102622.71,102989.902,
刺激提示,canvas.Screen,10_12_3,2023-01-15T05:35:30.454Z,,,b,true,b,45,807.2979999880772,response,e.jpg,b,keypress(f),103801.19999998808,103797.19999998808,103151.89999997616,103152.19999998808,102989.902,103656.542,
フィードバック(0.5秒),canvas.Screen,10_12_4,2023-01-15T05:35:30.834Z,,,b,,,45,349.9860000000044,timeout,e.jpg,,,104180.39999997616,104180.19999998808,103639.876,103802.09999996424,103656.542,104006.528,
トライアル,flow.Sequence,10_12,2023-01-15T05:35:30.834Z,,,b,,,45,2757.4419999880774,completion,e.jpg,,,104180.69999998808,104180.19999998808,101597.80000001192,101598.30000001192,101422.758,104006.528,
空白時間1 (0.5秒),canvas.Screen,10_13_0,2023-01-15T05:35:31.170Z,,,b,,,135,333.31999999999243,timeout,e.jpg,,,104516.59999996424,104516.19999998808,104180.19999998808,104180.80000001192,104006.528,104339.848,
注視(1秒),canvas.Screen,10_13_1,2023-01-15T05:35:32.010Z,,,b,,,135,849.9660000000003,timeout,e.jpg,,,105356.59999996424,105356.30000001192,104516.19999998808,104516.80000001192,104339.848,105189.814,
空白時間2 (0.5秒),canvas.Screen,10_13_2,2023-01-15T05:35:32.369Z,,,b,,,135,349.9860000000044,timeout,e.jpg,,,105715.69999998808,105715.5,105356.30000001192,105356.89999997616,105189.814,105539.8,
刺激提示,canvas.Screen,10_13_3,2023-01-15T05:35:33.411Z,,,b,true,b,135,1208.5999999761552,response,e.jpg,b,keypress(f),106758.19999998808,106748.39999997616,105715.5,105715.89999997616,105539.8,106606.424,
フィードバック(0.5秒),canvas.Screen,10_13_4,2023-01-15T05:35:33.785Z,,,b,,,135,349.9860000000044,timeout,e.jpg,,,107132.39999997616,107132.19999998808,106589.758,106766.09999996424,106606.424,106956.41,
トライアル,flow.Sequence,10_13,2023-01-15T05:35:33.786Z,,,b,,,135,3125.6719999880734,completion,e.jpg,,,107132.69999998808,107132.19999998808,104180.19999998808,104180.69999998808,104006.528,106956.41,
空白時間1 (0.5秒),canvas.Screen,10_14_0,2023-01-15T05:35:34.121Z,,,b,,,90,333.31999999999243,timeout,e.jpg,,,107467.80000001192,107467.59999996424,107132.19999998808,107132.80000001192,106956.41,107289.73,
注視(1秒),canvas.Screen,10_14_1,2023-01-15T05:35:34.961Z,,,b,,,90,849.9660000000003,timeout,e.jpg,,,108307.80000001192,108307.69999998808,107467.59999996424,107468,107289.73,108139.696,
空白時間2 (0.5秒),canvas.Screen,10_14_2,2023-01-15T05:35:35.313Z,,,b,,,90,349.9860000000044,timeout,e.jpg,,,108660.5,108660.19999998808,108307.69999998808,108308,108139.696,108489.682,
刺激提示,canvas.Screen,10_14_3,2023-01-15T05:35:35.827Z,,,b,true,b,90,673.9179999642365,response,e.jpg,b,keypress(f),109174.09999996424,109163.59999996424,108660.19999998808,108660.59999996424,108489.682,109039.66,
フィードバック(0.5秒),canvas.Screen,10_14_4,2023-01-15T05:35:36.218Z,,,b,,,90,349.9859999999899,timeout,e.jpg,,,109564.59999996424,109564.19999998808,109022.994,109175.5,109039.66,109389.646,
トライアル,flow.Sequence,10_14,2023-01-15T05:35:36.218Z,,,b,,,90,2607.7899999880756,completion,e.jpg,,,109564.89999997616,109564.19999998808,107132.19999998808,107132.69999998808,106956.41,109389.646,
空白時間1 (0.5秒),canvas.Screen,10_15_0,2023-01-15T05:35:36.562Z,,,b,,,315,349.9860000000044,timeout,e.jpg,,,109908.5,109908.19999998808,109564.19999998808,109565.09999996424,109389.646,109739.632,
注視(1秒),canvas.Screen,10_15_1,2023-01-15T05:35:37.409Z,,,b,,,315,849.9660000000003,timeout,e.jpg,,,110755.69999998808,110755.5,109908.19999998808,109908.69999998808,109739.632,110589.598,
空白時間2 (0.5秒),canvas.Screen,10_15_2,2023-01-15T05:35:37.762Z,,,b,,,315,349.9860000000044,timeout,e.jpg,,,111108.59999996424,111108.19999998808,110755.5,110755.89999997616,110589.598,110939.584,
刺激提示,canvas.Screen,10_15_3,2023-01-15T05:35:38.372Z,,,b,true,b,315,775.7160000119184,response,e.jpg,b,keypress(f),111719.19999998808,111715.30000001192,111108.19999998808,111108.80000001192,110939.584,111572.892,
フィードバック(0.5秒),canvas.Screen,10_15_4,2023-01-15T05:35:38.745Z,,,b,,,315,349.9859999999899,timeout,e.jpg,,,112092.39999997616,112092.19999998808,111556.226,111720.19999998808,111572.892,111922.878,
トライアル,flow.Sequence,10_15,2023-01-15T05:35:38.746Z,,,b,,,315,2702.5539999880857,completion,e.jpg,,,112092.5,112092.19999998808,109564.19999998808,109565,109389.646,111922.878,
タスクのセット,flow.Loop,10,2023-01-15T05:35:38.746Z,,,,,,,43786.482999988075,completion,,,,112092.59999996424,112092.19999998808,68476.30000001192,68477.19999998808,68305.717,111922.878,
空白時間1 (0.5秒),canvas.Screen,11_0_0,2023-01-15T05:35:39.089Z,,,d,,,90,349.9860000000044,timeout,eR.jpg,,,112435.69999998808,112435.39999997616,112092.19999998808,112092.80000001192,111922.878,112272.864,
注視(1秒),canvas.Screen,11_0_1,2023-01-15T05:35:39.940Z,,,d,,,90,866.6319999999978,timeout,eR.jpg,,,113286.89999997616,113286.59999996424,112435.39999997616,112435.89999997616,112272.864,113139.496,
空白時間2 (0.5秒),canvas.Screen,11_0_2,2023-01-15T05:35:40.441Z,,,d,,,90,500.5329999999958,timeout,eR.jpg,,,113787.80000001192,113623.363,113286.59999996424,113287,113139.496,113640.029,
刺激提示,canvas.Screen,11_0_3,2023-01-15T05:35:41.144Z,,,d,true,d,90,847.971000000005,response,eR.jpg,d,keypress(j),114491.39999997616,114488,113623.363,113787.89999997616,113640.029,114356.667,
フィードバック(0.5秒),canvas.Screen,11_0_4,2023-01-15T05:35:41.531Z,,,d,,,90,349.9860000000044,timeout,eR.jpg,,,114877.80000001192,114877.59999996424,114340.001,114502.69999998808,114356.667,114706.653,
トライアル,flow.Sequence,11_0,2023-01-15T05:35:41.531Z,,,d,,,90,2954.7219999642402,completion,eR.jpg,,,114878,114877.59999996424,112092.19999998808,112092.80000001192,111922.878,114706.653,
空白時間1 (0.5秒),canvas.Screen,11_1_0,2023-01-15T05:35:41.883Z,,,d,,,225,349.9859999999899,timeout,eR.jpg,,,115230.09999996424,115229.80000001192,114877.59999996424,114878.09999996424,114706.653,115056.639,
注視(1秒),canvas.Screen,11_1_1,2023-01-15T05:35:42.721Z,,,d,,,225,849.9660000000003,timeout,eR.jpg,,,116068.39999997616,116068.09999996424,115229.80000001192,115230.30000001192,115056.639,115906.605,
空白時間2 (0.5秒),canvas.Screen,11_1_2,2023-01-15T05:35:43.081Z,,,d,,,225,349.9860000000044,timeout,eR.jpg,,,116428.39999997616,116428.19999998808,116068.09999996424,116068.59999996424,115906.605,116256.591,
刺激提示,canvas.Screen,11_1_3,2023-01-15T05:35:43.899Z,,,d,false,d,225,985.7090000119206,response,eR.jpg,b,keypress(f),117245.80000001192,117242.30000001192,116428.19999998808,116428.59999996424,116256.591,117106.557,
フィードバック(0.5秒),canvas.Screen,11_1_4,2023-01-15T05:35:44.281Z,,,d,,,225,349.9860000000044,timeout,eR.jpg,,,117628.39999997616,117628.19999998808,117089.891,117247.19999998808,117106.557,117456.543,
トライアル,flow.Sequence,11_1,2023-01-15T05:35:44.282Z,,,d,,,225,2921.5469999880734,completion,eR.jpg,,,117628.69999998808,117628.19999998808,114877.59999996424,114878.09999996424,114706.653,117456.543,
空白時間1 (0.5秒),canvas.Screen,11_2_0,2023-01-15T05:35:44.633Z,,,d,,,315,349.9859999999899,timeout,eR.jpg,,,117980.39999997616,117980.09999996424,117628.19999998808,117628.80000001192,117456.543,117806.529,
注視(1秒),canvas.Screen,11_2_1,2023-01-15T05:35:45.477Z,,,d,,,315,849.9660000000003,timeout,eR.jpg,,,118824.5,118824.19999998808,117980.09999996424,117980.5,117806.529,118656.495,
空白時間2 (0.5秒),canvas.Screen,11_2_2,2023-01-15T05:35:45.833Z,,,d,,,315,349.9860000000044,timeout,eR.jpg,,,119180.39999997616,119180.19999998808,118824.19999998808,118824.59999996424,118656.495,119006.481,
刺激提示,canvas.Screen,11_2_3,2023-01-15T05:35:46.704Z,,,d,true,d,315,1041.7189999880793,response,eR.jpg,d,keypress(j),120051.39999997616,120048.19999998808,119180.19999998808,119180.59999996424,119006.481,119906.445,
フィードバック(0.5秒),canvas.Screen,11_2_4,2023-01-15T05:35:47.081Z,,,d,,,315,349.9859999999899,timeout,eR.jpg,,,120428,120427.80000001192,119889.779,120053.19999998808,119906.445,120256.431,
トライアル,flow.Sequence,11_2,2023-01-15T05:35:47.081Z,,,d,,,315,2971.257000011916,completion,eR.jpg,,,120428.19999998808,120427.80000001192,117628.19999998808,117628.69999998808,117456.543,120256.431,
空白時間1 (0.5秒),canvas.Screen,11_3_0,2023-01-15T05:35:47.433Z,,,b,,,135,349.9860000000044,timeout,e.jpg,,,120780.39999997616,120780.19999998808,120427.80000001192,120428.30000001192,120256.431,120606.417,
注視(1秒),canvas.Screen,11_3_1,2023-01-15T05:35:48.273Z,,,b,,,135,849.9660000000003,timeout,e.jpg,,,121620.39999997616,121620.09999996424,120780.19999998808,120780.59999996424,120606.417,121456.383,
空白時間2 (0.5秒),canvas.Screen,11_3_2,2023-01-15T05:35:48.633Z,,,b,,,135,349.9860000000044,timeout,e.jpg,,,121980.5,121980.19999998808,121620.09999996424,121620.5,121456.383,121806.369,
刺激提示,canvas.Screen,11_3_3,2023-01-15T05:35:49.735Z,,,b,true,b,135,1272.4310000119149,response,e.jpg,b,keypress(f),123081.80000001192,123078.80000001192,121980.19999998808,121980.69999998808,121806.369,122939.657,
フィードバック(0.5秒),canvas.Screen,11_3_4,2023-01-15T05:35:50.113Z,,,b,,,135,349.9859999999899,timeout,e.jpg,,,123460.5,123460.30000001192,122922.991,123090.59999996424,122939.657,123289.643,
トライアル,flow.Sequence,11_3,2023-01-15T05:35:50.114Z,,,b,,,135,3203.869000011924,completion,e.jpg,,,123460.80000001192,123460.30000001192,120427.80000001192,120428.30000001192,120256.431,123289.643,
空白時間1 (0.5秒),canvas.Screen,11_4_0,2023-01-15T05:35:50.590Z,,,b,,,0,500.51200000000244,timeout,e.jpg,,,123937.30000001192,123773.489,123460.30000001192,123460.89999997616,123289.643,123790.155,
注視(1秒),canvas.Screen,11_4_1,2023-01-15T05:35:51.457Z,,,b,,,0,849.9660000000003,timeout,e.jpg,,,124804.39999997616,124804.19999998808,123773.489,123937.5,123790.155,124640.121,
空白時間2 (0.5秒),canvas.Screen,11_4_2,2023-01-15T05:35:51.817Z,,,b,,,0,349.9860000000044,timeout,e.jpg,,,125164.5,125164.30000001192,124804.19999998808,124804.5,124640.121,124990.107,
刺激提示,canvas.Screen,11_4_3,2023-01-15T05:35:52.351Z,,,b,true,b,0,689.3929999999964,response,e.jpg,b,keypress(f),125697.80000001192,125679.5,125164.30000001192,125164.59999996424,124990.107,125540.085,
フィードバック(0.5秒),canvas.Screen,11_4_4,2023-01-15T05:35:52.713Z,,,b,,,0,349.9859999999899,timeout,e.jpg,,,126060.5,126060.30000001192,125523.419,125699.19999998808,125540.085,125890.071,
トライアル,flow.Sequence,11_4,2023-01-15T05:35:52.714Z,,,b,,,0,2770.6570000119245,completion,e.jpg,,,126060.69999998808,126060.30000001192,123460.30000001192,123460.80000001192,123289.643,125890.071,
空白時間1 (0.5秒),canvas.Screen,11_5_0,2023-01-15T05:35:53.065Z,,,d,,,135,366.65200000000186,timeout,eR.jpg,,,126412.5,126412.19999998808,126060.30000001192,126060.80000001192,125890.071,126256.723,
注視(1秒),canvas.Screen,11_5_1,2023-01-15T05:35:53.922Z,,,d,,,135,849.9660000000003,timeout,eR.jpg,,,127268.69999998808,127268.19999998808,126412.19999998808,126412.59999996424,126256.723,127106.689,
空白時間2 (0.5秒),canvas.Screen,11_5_2,2023-01-15T05:35:54.283Z,,,d,,,135,349.9860000000044,timeout,eR.jpg,,,127629.69999998808,127628.5,127268.19999998808,127268.80000001192,127106.689,127456.675,
刺激提示,canvas.Screen,11_5_3,2023-01-15T05:35:55.095Z,,,d,true,d,135,977.0249999880762,response,eR.jpg,d,keypress(j),128441.69999998808,128433.69999998808,127628.5,127630,127456.675,128289.975,
フィードバック(0.5秒),canvas.Screen,11_5_4,2023-01-15T05:35:55.465Z,,,d,,,135,349.9859999999899,timeout,eR.jpg,,,128812.39999997616,128812.19999998808,128273.309,128447.59999996424,128289.975,128639.961,
トライアル,flow.Sequence,11_5,2023-01-15T05:35:55.466Z,,,d,,,135,2922.128999988083,completion,eR.jpg,,,128812.69999998808,128812.19999998808,126060.30000001192,126060.80000001192,125890.071,128639.961,
空白時間1 (0.5秒),canvas.Screen,11_6_0,2023-01-15T05:35:55.801Z,,,b,,,45,333.320000000007,timeout,e.jpg,,,129148.19999998808,129147.89999997616,128812.19999998808,128812.80000001192,128639.961,128973.281,
注視(1秒),canvas.Screen,11_6_1,2023-01-15T05:35:56.641Z,,,b,,,45,849.9660000000003,timeout,e.jpg,,,129988.30000001192,129987.89999997616,129147.89999997616,129148.30000001192,128973.281,129823.247,
空白時間2 (0.5秒),canvas.Screen,11_6_2,2023-01-15T05:35:57.001Z,,,b,,,45,349.9859999999899,timeout,e.jpg,,,130348.59999996424,130348.19999998808,129987.89999997616,129988.5,129823.247,130173.233,
刺激提示,canvas.Screen,11_6_3,2023-01-15T05:35:57.512Z,,,b,true,b,45,682.067000011928,response,e.jpg,b,keypress(f),130858.80000001192,130855.30000001192,130348.19999998808,130348.80000001192,130173.233,130723.211,
フィードバック(0.5秒),canvas.Screen,11_6_4,2023-01-15T05:35:57.901Z,,,b,,,45,349.9859999999899,timeout,e.jpg,,,131248.09999996424,131247.80000001192,130706.545,130860.89999997616,130723.211,131073.197,
トライアル,flow.Sequence,11_6,2023-01-15T05:35:57.901Z,,,b,,,45,2607.8390000119252,completion,e.jpg,,,131248.19999998808,131247.80000001192,128812.19999998808,128812.80000001192,128639.961,131073.197,
空白時間1 (0.5秒),canvas.Screen,11_7_0,2023-01-15T05:35:58.251Z,,,d,,,45,349.9860000000044,timeout,eR.jpg,,,131598.19999998808,131597.89999997616,131247.80000001192,131248.30000001192,131073.197,131423.183,
注視(1秒),canvas.Screen,11_7_1,2023-01-15T05:35:59.089Z,,,d,,,45,849.9660000000149,timeout,eR.jpg,,,132436.09999996424,132435.80000001192,131597.89999997616,131598.30000001192,131423.183,132273.149,
空白時間2 (0.5秒),canvas.Screen,11_7_2,2023-01-15T05:35:59.451Z,,,d,,,45,366.65200000000186,timeout,eR.jpg,,,132797.69999998808,132797.39999997616,132435.80000001192,132436.19999998808,132273.149,132639.801,
刺激提示,canvas.Screen,11_7_3,2023-01-15T05:36:00.029Z,,,d,true,d,45,724.3989999880723,response,eR.jpg,d,keypress(j),133376.69999998808,133364.19999998808,132797.39999997616,132797.80000001192,132639.801,133223.111,
フィードバック(0.5秒),canvas.Screen,11_7_4,2023-01-15T05:36:00.402Z,,,d,,,45,349.9860000000044,timeout,eR.jpg,,,133749.19999998808,133749,133206.445,133377.5,133223.111,133573.097,
トライアル,flow.Sequence,11_7,2023-01-15T05:36:00.402Z,,,d,,,45,2675.8030000000144,completion,eR.jpg,,,133749.39999997616,133749,131247.80000001192,131248.30000001192,131073.197,133573.097,
空白時間1 (0.5秒),canvas.Screen,11_8_0,2023-01-15T05:36:00.737Z,,,d,,,0,333.8619999999937,timeout,eR.jpg,,,134083.80000001192,134083.59999996424,133749,133749.5,133573.097,133906.959,
注視(1秒),canvas.Screen,11_8_1,2023-01-15T05:36:01.580Z,,,d,,,0,849.9659999999858,timeout,eR.jpg,,,134927.09999996424,134926.89999997616,134083.59999996424,134084,133906.959,134756.925,
空白時間2 (0.5秒),canvas.Screen,11_8_2,2023-01-15T05:36:01.929Z,,,d,,,0,349.9860000000044,timeout,eR.jpg,,,135276.5,135276.30000001192,134926.89999997616,134927.30000001192,134756.925,135106.911,
刺激提示,canvas.Screen,11_8_3,2023-01-15T05:36:02.429Z,,,d,true,d,0,665.4889999761654,response,eR.jpg,d,keypress(j),135775.89999997616,135772.39999997616,135276.30000001192,135276.69999998808,135106.911,135640.223,
フィードバック(0.5秒),canvas.Screen,11_8_4,2023-01-15T05:36:02.821Z,,,d,,,0,349.9860000000044,timeout,eR.jpg,,,136168.09999996424,136167.80000001192,135623.557,135777.5,135640.223,135990.209,
トライアル,flow.Sequence,11_8,2023-01-15T05:36:02.821Z,,,d,,,0,2594.703000011912,completion,eR.jpg,,,136168.30000001192,136167.80000001192,133749,133749.39999997616,133573.097,135990.209,
空白時間1 (0.5秒),canvas.Screen,11_9_0,2023-01-15T05:36:03.161Z,,,d,,,180,349.9860000000044,timeout,eR.jpg,,,136508.5,136508.19999998808,136167.80000001192,136168.39999997616,135990.209,136340.195,
注視(1秒),canvas.Screen,11_9_1,2023-01-15T05:36:04.011Z,,,d,,,180,849.9659999999858,timeout,eR.jpg,,,137358.69999998808,137358.09999996424,136508.19999998808,136508.59999996424,136340.195,137190.161,
空白時間2 (0.5秒),canvas.Screen,11_9_2,2023-01-15T05:36:04.360Z,,,d,,,180,349.9860000000044,timeout,eR.jpg,,,137707.69999998808,137707.39999997616,137358.09999996424,137358.89999997616,137190.161,137540.147,
刺激提示,canvas.Screen,11_9_3,2023-01-15T05:36:05.178Z,,,d,true,d,180,969.1530000119237,response,eR.jpg,d,keypress(j),138524.89999997616,138509.30000001192,137707.39999997616,137707.80000001192,137540.147,138390.113,
フィードバック(0.5秒),canvas.Screen,11_9_4,2023-01-15T05:36:05.563Z,,,d,,,180,349.9859999999753,timeout,eR.jpg,,,138909.80000001192,138909.5,138373.447,138536.69999998808,138390.113,138740.099,
トライアル,flow.Sequence,11_9,2023-01-15T05:36:05.563Z,,,d,,,180,2919.2909999999974,completion,eR.jpg,,,138910,138909.5,136167.80000001192,136168.39999997616,135990.209,138740.099,
空白時間1 (0.5秒),canvas.Screen,11_10_0,2023-01-15T05:36:05.913Z,,,d,,,270,349.9860000000044,timeout,eR.jpg,,,139260.5,139260.19999998808,138909.5,138910.09999996424,138740.099,139090.085,
注視(1秒),canvas.Screen,11_10_1,2023-01-15T05:36:06.764Z,,,d,,,270,849.9660000000149,timeout,eR.jpg,,,140111,140110.80000001192,139260.19999998808,139260.59999996424,139090.085,139940.051,
空白時間2 (0.5秒),canvas.Screen,11_10_2,2023-01-15T05:36:07.113Z,,,d,,,270,349.9860000000044,timeout,eR.jpg,,,140460.59999996424,140460.39999997616,140110.80000001192,140111.19999998808,139940.051,140290.037,
刺激提示,canvas.Screen,11_10_3,2023-01-15T05:36:07.653Z,,,d,true,d,270,706.4629999999888,response,eR.jpg,d,keypress(j),141000,140996.5,140460.39999997616,140460.80000001192,140290.037,140856.681,
フィードバック(0.5秒),canvas.Screen,11_10_4,2023-01-15T05:36:08.033Z,,,d,,,270,349.9859999999753,timeout,eR.jpg,,,141380.5,141380.19999998808,140840.015,141001.89999997616,140856.681,141206.667,
トライアル,flow.Sequence,11_10,2023-01-15T05:36:08.034Z,,,d,,,270,2640.1009999880916,completion,eR.jpg,,,141380.80000001192,141380.19999998808,138909.5,138910.09999996424,138740.099,141206.667,
空白時間1 (0.5秒),canvas.Screen,11_11_0,2023-01-15T05:36:08.385Z,,,b,,,315,349.9860000000044,timeout,e.jpg,,,141732.39999997616,141732.09999996424,141380.19999998808,141380.89999997616,141206.667,141556.653,
注視(1秒),canvas.Screen,11_11_1,2023-01-15T05:36:09.217Z,,,b,,,315,833.3000000000175,timeout,e.jpg,,,142564.5,142564.19999998808,141732.09999996424,141732.5,141556.653,142389.953,
空白時間2 (0.5秒),canvas.Screen,11_11_2,2023-01-15T05:36:09.561Z,,,b,,,315,349.9860000000044,timeout,e.jpg,,,142908.39999997616,142908.19999998808,142564.19999998808,142564.5,142389.953,142739.939,
刺激提示,canvas.Screen,11_11_3,2023-01-15T05:36:10.218Z,,,b,true,b,315,818.560999999987,response,e.jpg,b,keypress(f),143565,143558.5,142908.19999998808,142908.5,142739.939,143406.579,
フィードバック(0.5秒),canvas.Screen,11_11_4,2023-01-15T05:36:10.585Z,,,b,,,315,349.9860000000044,timeout,e.jpg,,,143932.59999996424,143932.39999997616,143389.913,143566.30000001192,143406.579,143756.565,
トライアル,flow.Sequence,11_11,2023-01-15T05:36:10.586Z,,,b,,,315,2725.7329999761714,completion,e.jpg,,,143932.80000001192,143932.39999997616,141380.19999998808,141380.80000001192,141206.667,143756.565,
空白時間1 (0.5秒),canvas.Screen,11_12_0,2023-01-15T05:36:10.925Z,,,b,,,270,350.5210000000079,timeout,e.jpg,,,144272.09999996424,144271.89999997616,143932.39999997616,143933,143756.565,144107.086,
注視(1秒),canvas.Screen,11_12_1,2023-01-15T05:36:11.779Z,,,b,,,270,849.9659999999858,timeout,e.jpg,,,145126.39999997616,145126.19999998808,144271.89999997616,144272.39999997616,144107.086,144957.052,
空白時間2 (0.5秒),canvas.Screen,11_12_2,2023-01-15T05:36:12.129Z,,,b,,,270,349.9860000000044,timeout,e.jpg,,,145476.69999998808,145476.39999997616,145126.19999998808,145126.59999996424,144957.052,145307.038,
刺激提示,canvas.Screen,11_12_3,2023-01-15T05:36:12.606Z,,,b,true,b,270,640.9619999999995,response,e.jpg,b,keypress(f),145952.89999997616,145948,145476.39999997616,145477,145307.038,145807.018,
フィードバック(0.5秒),canvas.Screen,11_12_4,2023-01-15T05:36:12.977Z,,,b,,,270,349.9859999999753,timeout,e.jpg,,,146324.69999998808,146324.30000001192,145790.352,145955.5,145807.018,146157.004,
トライアル,flow.Sequence,11_12,2023-01-15T05:36:12.978Z,,,b,,,270,2567.7350000119186,completion,e.jpg,,,146324.80000001192,146324.30000001192,143932.39999997616,143932.89999997616,143756.565,146157.004,
空白時間1 (0.5秒),canvas.Screen,11_13_0,2023-01-15T05:36:13.329Z,,,b,,,180,349.9860000000044,timeout,e.jpg,,,146676.39999997616,146676.19999998808,146324.30000001192,146324.89999997616,146157.004,146506.99,
注視(1秒),canvas.Screen,11_13_1,2023-01-15T05:36:14.179Z,,,b,,,180,849.9660000000149,timeout,e.jpg,,,147526.59999996424,147526.19999998808,146676.19999998808,146676.39999997616,146506.99,147356.956,
空白時間2 (0.5秒),canvas.Screen,11_13_2,2023-01-15T05:36:14.529Z,,,b,,,180,349.9860000000044,timeout,e.jpg,,,147876.30000001192,147876.09999996424,147526.19999998808,147526.80000001192,147356.956,147706.942,
刺激提示,canvas.Screen,11_13_3,2023-01-15T05:36:15.552Z,,,b,true,b,180,1189.858000011911,response,e.jpg,b,keypress(f),148899.39999997616,148896.80000001192,147876.09999996424,147876.5,147706.942,148756.9,
フィードバック(0.5秒),canvas.Screen,11_13_4,2023-01-15T05:36:15.929Z,,,b,,,180,349.9860000000044,timeout,e.jpg,,,149276.59999996424,149276.30000001192,148740.234,148910.5,148756.9,149106.886,
トライアル,flow.Sequence,11_13,2023-01-15T05:36:15.929Z,,,b,,,180,3119.2960000119347,completion,e.jpg,,,149276.80000001192,149276.30000001192,146324.30000001192,146324.89999997616,146157.004,149106.886,
空白時間1 (0.5秒),canvas.Screen,11_14_0,2023-01-15T05:36:16.282Z,,,b,,,225,349.9860000000044,timeout,e.jpg,,,149629.5,149629.30000001192,149276.30000001192,149276.80000001192,149106.886,149456.872,
注視(1秒),canvas.Screen,11_14_1,2023-01-15T05:36:17.121Z,,,b,,,225,849.9659999999858,timeout,e.jpg,,,150468.59999996424,150468.30000001192,149629.30000001192,149629.69999998808,149456.872,150306.838,
空白時間2 (0.5秒),canvas.Screen,11_14_2,2023-01-15T05:36:17.481Z,,,b,,,225,349.9860000000044,timeout,e.jpg,,,150828.09999996424,150827.89999997616,150468.30000001192,150468.80000001192,150306.838,150656.824,
刺激提示,canvas.Screen,11_14_3,2023-01-15T05:36:18.185Z,,,b,true,b,225,860.9760000119277,response,e.jpg,b,keypress(f),151532.59999996424,151517.80000001192,150827.89999997616,150828.19999998808,150656.824,151373.462,
フィードバック(0.5秒),canvas.Screen,11_14_4,2023-01-15T05:36:18.553Z,,,b,,,225,349.9860000000044,timeout,e.jpg,,,151900.5,151900.30000001192,151356.796,151533.89999997616,151373.462,151723.448,
トライアル,flow.Sequence,11_14,2023-01-15T05:36:18.553Z,,,b,,,225,2793.4140000119223,completion,e.jpg,,,151900.69999998808,151900.30000001192,149276.30000001192,149276.80000001192,149106.886,151723.448,
空白時間1 (0.5秒),canvas.Screen,11_15_0,2023-01-15T05:36:18.901Z,,,b,,,90,349.9860000000044,timeout,e.jpg,,,152247.89999997616,152247.59999996424,151900.30000001192,151900.69999998808,151723.448,152073.434,
注視(1秒),canvas.Screen,11_15_1,2023-01-15T05:36:19.745Z,,,b,,,90,849.9659999999858,timeout,e.jpg,,,153092.5,153092.19999998808,152247.59999996424,152248,152073.434,152923.4,
空白時間2 (0.5秒),canvas.Screen,11_15_2,2023-01-15T05:36:20.097Z,,,b,,,90,349.9860000000044,timeout,e.jpg,,,153444.39999997616,153444.19999998808,153092.19999998808,153092.59999996424,152923.4,153273.386,
刺激提示,canvas.Screen,11_15_3,2023-01-15T05:36:20.741Z,,,b,true,b,90,812.1140000000014,response,e.jpg,b,keypress(f),154088.69999998808,154085.5,153444.19999998808,153444.69999998808,153273.386,153956.692,
フィードバック(0.5秒),canvas.Screen,11_15_4,2023-01-15T05:36:21.257Z,,,b,,,90,500.5129999999772,timeout,e.jpg,,,154604.59999996424,154440.539,153940.026,154090.09999996424,153956.692,154457.205,
トライアル,flow.Sequence,11_15,2023-01-15T05:36:21.258Z,,,b,,,90,2717.090999999986,completion,e.jpg,,,154604.89999997616,154440.539,151900.30000001192,151900.69999998808,151723.448,154457.205,
タスクのセット,flow.Loop,11,2023-01-15T05:36:21.258Z,,,,,,,42517.66099999999,completion,,,,154605.09999996424,154440.539,112092.19999998808,112092.69999998808,111922.878,154457.205,
空白時間1 (0.5秒),canvas.Screen,12_0_0,2023-01-15T05:36:21.633Z,,,b,,,180,349.9860000000044,timeout,e.jpg,,,154980.39999997616,154980.30000001192,154440.539,154605.30000001192,154457.205,154807.191,
注視(1秒),canvas.Screen,12_0_1,2023-01-15T05:36:22.482Z,,,b,,,180,849.9660000000149,timeout,e.jpg,,,155829.80000001192,155829.39999997616,154980.30000001192,154980.59999996424,154807.191,155657.157,
空白時間2 (0.5秒),canvas.Screen,12_0_2,2023-01-15T05:36:22.836Z,,,b,,,180,349.9860000000044,timeout,e.jpg,,,156183.30000001192,156183.09999996424,155829.39999997616,155830,155657.157,156007.143,
刺激提示,canvas.Screen,12_0_3,2023-01-15T05:36:23.479Z,,,b,false,b,180,815.9569999642263,response,e.jpg,d,keypress(j),156826.5,156823.09999996424,156183.09999996424,156183.39999997616,156007.143,156690.449,
フィードバック(0.5秒),canvas.Screen,12_0_4,2023-01-15T05:36:23.865Z,,,b,,,180,349.9860000000044,timeout,e.jpg,,,157212.69999998808,157212.30000001192,156673.783,156835.69999998808,156690.449,157040.435,
トライアル,flow.Sequence,12_0,2023-01-15T05:36:23.866Z,,,b,,,180,2755.0950000119337,completion,e.jpg,,,157212.89999997616,157212.30000001192,154440.539,154605.30000001192,154457.205,157040.435,
空白時間1 (0.5秒),canvas.Screen,12_1_0,2023-01-15T05:36:24.217Z,,,d,,,225,349.9860000000044,timeout,eR.jpg,,,157564.39999997616,157564.19999998808,157212.30000001192,157213,157040.435,157390.421,
注視(1秒),canvas.Screen,12_1_1,2023-01-15T05:36:25.057Z,,,d,,,225,849.9659999999858,timeout,eR.jpg,,,158404.30000001192,158404.09999996424,157564.19999998808,157564.59999996424,157390.421,158240.387,
空白時間2 (0.5秒),canvas.Screen,12_1_2,2023-01-15T05:36:25.401Z,,,d,,,225,333.320000000007,timeout,eR.jpg,,,158748.09999996424,158747.89999997616,158404.09999996424,158404.5,158240.387,158573.707,
刺激提示,canvas.Screen,12_1_3,2023-01-15T05:36:26.092Z,,,d,true,d,225,858.2930000000051,response,eR.jpg,d,keypress(j),159439.5,159432,158747.89999997616,158748.19999998808,158573.707,159290.345,
フィードバック(0.5秒),canvas.Screen,12_1_4,2023-01-15T05:36:26.477Z,,,d,,,225,366.65200000000186,timeout,eR.jpg,,,159824,159823.80000001192,159273.679,159441.89999997616,159290.345,159656.997,
トライアル,flow.Sequence,12_1,2023-01-15T05:36:26.477Z,,,d,,,225,2783.3650000119233,completion,eR.jpg,,,159824.30000001192,159823.80000001192,157212.30000001192,157213,157040.435,159656.997,
空白時間1 (0.5秒),canvas.Screen,12_2_0,2023-01-15T05:36:26.833Z,,,d,,,90,349.9860000000044,timeout,eR.jpg,,,160180.69999998808,160180.39999997616,159823.80000001192,159824.39999997616,159656.997,160006.983,
注視(1秒),canvas.Screen,12_2_1,2023-01-15T05:36:27.673Z,,,d,,,90,849.9659999999858,timeout,eR.jpg,,,161020.39999997616,161020.19999998808,160180.39999997616,160180.69999998808,160006.983,160856.949,
空白時間2 (0.5秒),canvas.Screen,12_2_2,2023-01-15T05:36:28.032Z,,,d,,,90,349.9860000000044,timeout,eR.jpg,,,161379.80000001192,161379.59999996424,161020.19999998808,161020.69999998808,160856.949,161206.935,
刺激提示,canvas.Screen,12_2_3,2023-01-15T05:36:28.788Z,,,d,true,d,90,925.2649999880814,response,eR.jpg,d,keypress(j),162135.09999996424,162132.19999998808,161379.59999996424,161379.89999997616,161206.935,161990.237,
フィードバック(0.5秒),canvas.Screen,12_2_4,2023-01-15T05:36:29.169Z,,,d,,,90,349.9860000000044,timeout,eR.jpg,,,162516.5,162516.30000001192,161973.571,162136.09999996424,161990.237,162340.223,
トライアル,flow.Sequence,12_2,2023-01-15T05:36:29.169Z,,,d,,,90,2859.303000011918,completion,eR.jpg,,,162516.69999998808,162516.30000001192,159823.80000001192,159824.39999997616,159656.997,162340.223,
空白時間1 (0.5秒),canvas.Screen,12_3_0,2023-01-15T05:36:29.513Z,,,b,,,90,349.9860000000044,timeout,e.jpg,,,162860.5,162860.19999998808,162516.30000001192,162516.80000001192,162340.223,162690.209,
注視(1秒),canvas.Screen,12_3_1,2023-01-15T05:36:30.356Z,,,b,,,90,849.9659999999858,timeout,e.jpg,,,163703.5,163703.19999998808,162860.19999998808,162860.5,162690.209,163540.175,
空白時間2 (0.5秒),canvas.Screen,12_3_2,2023-01-15T05:36:30.713Z,,,b,,,90,349.9860000000044,timeout,e.jpg,,,164060.39999997616,164060.30000001192,163703.19999998808,163703.69999998808,163540.175,163890.161,
刺激提示,canvas.Screen,12_3_3,2023-01-15T05:36:31.370Z,,,b,true,b,90,823.5389999880863,response,e.jpg,b,keypress(f),164717,164713.69999998808,164060.30000001192,164060.59999996424,163890.161,164573.467,
フィードバック(0.5秒),canvas.Screen,12_3_4,2023-01-15T05:36:31.874Z,,,b,,,90,500.53800000000047,timeout,e.jpg,,,165221,165057.339,164556.801,164727,164573.467,165074.005,
トライアル,flow.Sequence,12_3,2023-01-15T05:36:31.874Z,,,b,,,90,2717.116000000009,completion,e.jpg,,,165221.19999998808,165057.339,162516.30000001192,162516.80000001192,162340.223,165074.005,
空白時間1 (0.5秒),canvas.Screen,12_4_0,2023-01-15T05:36:32.251Z,,,b,,,270,349.9860000000044,timeout,e.jpg,,,165598.09999996424,165597.80000001192,165057.339,165221.39999997616,165074.005,165423.991,
注視(1秒),canvas.Screen,12_4_1,2023-01-15T05:36:33.100Z,,,b,,,270,849.9659999999858,timeout,e.jpg,,,166447.39999997616,166447.19999998808,165597.80000001192,165598.19999998808,165423.991,166273.957,
空白時間2 (0.5秒),canvas.Screen,12_4_2,2023-01-15T05:36:33.450Z,,,b,,,270,349.9860000000044,timeout,e.jpg,,,166797.09999996424,166796.89999997616,166447.19999998808,166447.69999998808,166273.957,166623.943,
刺激提示,canvas.Screen,12_4_3,2023-01-15T05:36:34.045Z,,,b,true,b,270,753.9569999761588,response,e.jpg,b,keypress(f),167392.69999998808,167377.89999997616,166796.89999997616,166797.30000001192,166623.943,167240.585,
フィードバック(0.5秒),canvas.Screen,12_4_4,2023-01-15T05:36:34.417Z,,,b,,,270,349.9860000000044,timeout,e.jpg,,,167764.39999997616,167764.19999998808,167223.919,167394.09999996424,167240.585,167590.571,
トライアル,flow.Sequence,12_4,2023-01-15T05:36:34.417Z,,,b,,,270,2690.1949999880744,completion,e.jpg,,,167764.5,167764.19999998808,165057.339,165221.30000001192,165074.005,167590.571,
空白時間1 (0.5秒),canvas.Screen,12_5_0,2023-01-15T05:36:34.752Z,,,d,,,315,333.320000000007,timeout,eR.jpg,,,168099.89999997616,168099.59999996424,167764.19999998808,167764.69999998808,167590.571,167923.891,
注視(1秒),canvas.Screen,12_5_1,2023-01-15T05:36:35.596Z,,,d,,,315,849.9659999999858,timeout,eR.jpg,,,168943,168942.69999998808,168099.59999996424,168100.09999996424,167923.891,168773.857,
空白時間2 (0.5秒),canvas.Screen,12_5_2,2023-01-15T05:36:35.953Z,,,d,,,315,349.9860000000044,timeout,eR.jpg,,,169300.39999997616,169300,168942.69999998808,168943.19999998808,168773.857,169123.843,
刺激提示,canvas.Screen,12_5_3,2023-01-15T05:36:36.507Z,,,d,true,d,315,724.9570000119274,response,eR.jpg,d,keypress(j),169854.5,169848.80000001192,169300,169300.5,169123.843,169707.153,
フィードバック(0.5秒),canvas.Screen,12_5_4,2023-01-15T05:36:36.881Z,,,d,,,315,349.9860000000044,timeout,eR.jpg,,,170228.59999996424,170228.30000001192,169690.487,169856.5,169707.153,170057.139,
トライアル,flow.Sequence,12_5,2023-01-15T05:36:36.881Z,,,d,,,315,2637.7290000119247,completion,eR.jpg,,,170228.69999998808,170228.30000001192,167764.19999998808,167764.59999996424,167590.571,170057.139,
空白時間1 (0.5秒),canvas.Screen,12_6_0,2023-01-15T05:36:37.232Z,,,d,,,0,349.9860000000044,timeout,eR.jpg,,,170579.69999998808,170579.39999997616,170228.30000001192,170228.80000001192,170057.139,170407.125,
注視(1秒),canvas.Screen,12_6_1,2023-01-15T05:36:38.073Z,,,d,,,0,849.9659999999858,timeout,eR.jpg,,,171420.39999997616,171420.19999998808,170579.39999997616,170579.80000001192,170407.125,171257.091,
空白時間2 (0.5秒),canvas.Screen,12_6_2,2023-01-15T05:36:38.433Z,,,d,,,0,349.9860000000044,timeout,eR.jpg,,,171780.5,171780.19999998808,171420.19999998808,171420.5,171257.091,171607.077,
刺激提示,canvas.Screen,12_6_3,2023-01-15T05:36:39.010Z,,,d,true,d,0,746.6229999880888,response,eR.jpg,d,keypress(j),172357.39999997616,172353.69999998808,171780.19999998808,171780.59999996424,171607.077,172207.053,
フィードバック(0.5秒),canvas.Screen,12_6_4,2023-01-15T05:36:39.379Z,,,d,,,0,349.9859999999753,timeout,eR.jpg,,,172726.30000001192,172726.09999996424,172190.387,172358.5,172207.053,172557.039,
トライアル,flow.Sequence,12_6,2023-01-15T05:36:39.379Z,,,d,,,0,2668.9609999642416,completion,eR.jpg,,,172726.5,172726.09999996424,170228.30000001192,170228.80000001192,170057.139,172557.039,
空白時間1 (0.5秒),canvas.Screen,12_7_0,2023-01-15T05:36:39.729Z,,,b,,,135,349.9860000000044,timeout,e.jpg,,,173076.59999996424,173076.30000001192,172726.09999996424,172726.59999996424,172557.039,172907.025,
注視(1秒),canvas.Screen,12_7_1,2023-01-15T05:36:40.580Z,,,b,,,135,849.9660000000149,timeout,e.jpg,,,173927.09999996424,173926.80000001192,173076.30000001192,173076.89999997616,172907.025,173756.991,
空白時間2 (0.5秒),canvas.Screen,12_7_2,2023-01-15T05:36:40.929Z,,,b,,,135,349.9860000000044,timeout,e.jpg,,,174276.19999998808,174276,173926.80000001192,173927.19999998808,173756.991,174106.977,
刺激提示,canvas.Screen,12_7_3,2023-01-15T05:36:41.558Z,,,b,true,b,135,795.4229999761446,response,e.jpg,b,keypress(f),174905.80000001192,174902.39999997616,174276,174276.39999997616,174106.977,174756.951,
フィードバック(0.5秒),canvas.Screen,12_7_4,2023-01-15T05:36:42.056Z,,,b,,,135,500.5130000000063,timeout,e.jpg,,,175403.89999997616,175240.798,174740.285,174912.09999996424,174756.951,175257.464,
トライアル,flow.Sequence,12_7,2023-01-15T05:36:42.057Z,,,b,,,135,2683.75900000002,completion,e.jpg,,,175404.09999996424,175240.798,172726.09999996424,172726.59999996424,172557.039,175257.464,
空白時間1 (0.5秒),canvas.Screen,12_8_0,2023-01-15T05:36:42.435Z,,,b,,,0,349.9860000000044,timeout,e.jpg,,,175782.5,175782.30000001192,175240.798,175404.19999998808,175257.464,175607.45,
注視(1秒),canvas.Screen,12_8_1,2023-01-15T05:36:43.273Z,,,b,,,0,849.9659999999858,timeout,e.jpg,,,176620.19999998808,176620.09999996424,175782.30000001192,175782.69999998808,175607.45,176457.416,
空白時間2 (0.5秒),canvas.Screen,12_8_2,2023-01-15T05:36:43.633Z,,,b,,,0,349.9860000000044,timeout,e.jpg,,,176980.5,176980.30000001192,176620.09999996424,176620.39999997616,176457.416,176807.402,
刺激提示,canvas.Screen,12_8_3,2023-01-15T05:36:44.125Z,,,b,true,b,0,660.9979999761563,response,e.jpg,b,keypress(f),177472.09999996424,177468.39999997616,176980.30000001192,176980.80000001192,176807.402,177324.048,
フィードバック(0.5秒),canvas.Screen,12_8_4,2023-01-15T05:36:44.500Z,,,b,,,0,349.9860000000044,timeout,e.jpg,,,177847.59999996424,177847.39999997616,177307.382,177473.89999997616,177324.048,177674.034,
トライアル,flow.Sequence,12_8,2023-01-15T05:36:44.500Z,,,b,,,0,2589.935999976151,completion,e.jpg,,,177847.89999997616,177847.39999997616,175240.798,175404.19999998808,175257.464,177674.034,
空白時間1 (0.5秒),canvas.Screen,12_9_0,2023-01-15T05:36:44.849Z,,,b,,,45,349.9859999999753,timeout,e.jpg,,,178196.5,178196.30000001192,177847.39999997616,177848,177674.034,178024.02,
注視(1秒),canvas.Screen,12_9_1,2023-01-15T05:36:45.701Z,,,b,,,45,849.9660000000149,timeout,e.jpg,,,179048.19999998808,179047.89999997616,178196.30000001192,178196.59999996424,178024.02,178873.986,
空白時間2 (0.5秒),canvas.Screen,12_9_2,2023-01-15T05:36:46.050Z,,,b,,,45,349.9860000000044,timeout,e.jpg,,,179397.39999997616,179397.09999996424,179047.89999997616,179048.39999997616,178873.986,179223.972,
刺激提示,canvas.Screen,12_9_3,2023-01-15T05:36:46.606Z,,,b,true,b,45,726.6279999642284,response,e.jpg,b,keypress(f),179953.80000001192,179950.59999996424,179397.09999996424,179397.39999997616,179223.972,179807.282,
フィードバック(0.5秒),canvas.Screen,12_9_4,2023-01-15T05:36:46.985Z,,,b,,,45,349.9860000000044,timeout,e.jpg,,,180332.5,180332.30000001192,179790.616,179954.89999997616,179807.282,180157.268,
トライアル,flow.Sequence,12_9,2023-01-15T05:36:46.985Z,,,b,,,45,2658.2660000119067,completion,e.jpg,,,180332.69999998808,180332.30000001192,177847.39999997616,177847.89999997616,177674.034,180157.268,
空白時間1 (0.5秒),canvas.Screen,12_10_0,2023-01-15T05:36:47.321Z,,,d,,,135,333.3199999999779,timeout,eR.jpg,,,180668.5,180668.19999998808,180332.30000001192,180332.80000001192,180157.268,180490.588,
注視(1秒),canvas.Screen,12_10_1,2023-01-15T05:36:48.153Z,,,d,,,135,833.3000000000175,timeout,eR.jpg,,,181500.39999997616,181500.19999998808,180668.19999998808,180668.59999996424,180490.588,181323.888,
空白時間2 (0.5秒),canvas.Screen,12_10_2,2023-01-15T05:36:48.490Z,,,d,,,135,349.9860000000044,timeout,eR.jpg,,,181837.5,181837.19999998808,181500.19999998808,181500.59999996424,181323.888,181673.874,
刺激提示,canvas.Screen,12_10_3,2023-01-15T05:36:49.194Z,,,d,true,d,135,864.3259999880684,response,eR.jpg,d,keypress(j),182542.09999996424,182538.19999998808,181837.19999998808,181837.69999998808,181673.874,182407.178,
フィードバック(0.5秒),canvas.Screen,12_10_4,2023-01-15T05:36:49.585Z,,,d,,,135,349.9859999999753,timeout,eR.jpg,,,182932.5,182932.30000001192,182390.512,182551.89999997616,182407.178,182757.164,
トライアル,flow.Sequence,12_10,2023-01-15T05:36:49.585Z,,,d,,,135,2775.03200001191,completion,eR.jpg,,,182932.80000001192,182932.30000001192,180332.30000001192,180332.69999998808,180157.268,182757.164,
空白時間1 (0.5秒),canvas.Screen,12_11_0,2023-01-15T05:36:49.929Z,,,d,,,45,349.9860000000044,timeout,eR.jpg,,,183276.39999997616,183276.19999998808,182932.30000001192,182932.89999997616,182757.164,183107.15,
注視(1秒),canvas.Screen,12_11_1,2023-01-15T05:36:50.779Z,,,d,,,45,849.9660000000149,timeout,eR.jpg,,,184127.09999996424,184126.80000001192,183276.19999998808,183276.59999996424,183107.15,183957.116,
空白時間2 (0.5秒),canvas.Screen,12_11_2,2023-01-15T05:36:51.125Z,,,d,,,45,349.9860000000044,timeout,eR.jpg,,,184472.19999998808,184472,184126.80000001192,184127.19999998808,183957.116,184307.102,
刺激提示,canvas.Screen,12_11_3,2023-01-15T05:36:51.638Z,,,d,true,d,45,674.8979999999865,response,eR.jpg,d,keypress(j),184986,184982,184472,184472.30000001192,184307.102,184840.414,
フィードバック(0.5秒),canvas.Screen,12_11_4,2023-01-15T05:36:52.141Z,,,d,,,45,500.5100000000093,timeout,eR.jpg,,,185488.09999996424,185324.258,184823.748,184987.19999998808,184840.414,185340.924,
トライアル,flow.Sequence,12_11,2023-01-15T05:36:52.141Z,,,d,,,45,2567.094000000012,completion,eR.jpg,,,185488.39999997616,185324.258,182932.30000001192,182932.80000001192,182757.164,185340.924,
空白時間1 (0.5秒),canvas.Screen,12_12_0,2023-01-15T05:36:52.512Z,,,d,,,180,349.9860000000044,timeout,eR.jpg,,,185859.80000001192,185859.5,185324.258,185488.5,185340.924,185690.91,
注視(1秒),canvas.Screen,12_12_1,2023-01-15T05:36:53.361Z,,,d,,,180,849.9659999999858,timeout,eR.jpg,,,186708.5,186708.30000001192,185859.5,185859.89999997616,185690.91,186540.876,
空白時間2 (0.5秒),canvas.Screen,12_12_2,2023-01-15T05:36:53.715Z,,,d,,,180,349.9860000000044,timeout,eR.jpg,,,187063,187062.59999996424,186708.30000001192,186708.59999996424,186540.876,186890.862,
刺激提示,canvas.Screen,12_12_3,2023-01-15T05:36:54.626Z,,,d,true,d,180,1080.2379999642435,response,eR.jpg,d,keypress(j),187973.69999998808,187971.09999996424,187062.59999996424,187063.09999996424,186890.862,187824.158,
フィードバック(0.5秒),canvas.Screen,12_12_4,2023-01-15T05:36:55.000Z,,,d,,,180,349.9860000000044,timeout,eR.jpg,,,188348.09999996424,188347.80000001192,187807.492,187974.69999998808,187824.158,188174.144,
トライアル,flow.Sequence,12_12,2023-01-15T05:36:55.001Z,,,d,,,180,3006.876000011922,completion,eR.jpg,,,188348.19999998808,188347.80000001192,185324.258,185488.39999997616,185340.924,188174.144,
空白時間1 (0.5秒),canvas.Screen,12_13_0,2023-01-15T05:36:55.336Z,,,b,,,225,333.320000000007,timeout,e.jpg,,,188683.80000001192,188683.59999996424,188347.80000001192,188348.30000001192,188174.144,188507.464,
注視(1秒),canvas.Screen,12_13_1,2023-01-15T05:36:56.179Z,,,b,,,225,849.9659999999858,timeout,e.jpg,,,189526.69999998808,189526.59999996424,188683.59999996424,188684.09999996424,188507.464,189357.43,
空白時間2 (0.5秒),canvas.Screen,12_13_2,2023-01-15T05:36:56.530Z,,,b,,,225,349.9860000000044,timeout,e.jpg,,,189877.09999996424,189876.89999997616,189526.59999996424,189526.89999997616,189357.43,189707.416,
刺激提示,canvas.Screen,12_13_3,2023-01-15T05:36:57.011Z,,,b,false,b,225,646.6839999642398,response,e.jpg,d,keypress(j),190358.19999998808,190354.09999996424,189876.89999997616,189877.30000001192,189707.416,190207.396,
フィードバック(0.5秒),canvas.Screen,12_13_4,2023-01-15T05:36:57.385Z,,,b,,,225,349.9860000000044,timeout,e.jpg,,,190732.39999997616,190732.19999998808,190190.73,190359.39999997616,190207.396,190557.382,
トライアル,flow.Sequence,12_13,2023-01-15T05:36:57.385Z,,,b,,,225,2558.055999988079,completion,e.jpg,,,190732.59999996424,190732.19999998808,188347.80000001192,188348.30000001192,188174.144,190557.382,
空白時間1 (0.5秒),canvas.Screen,12_14_0,2023-01-15T05:36:57.721Z,,,b,,,315,333.3199999999779,timeout,e.jpg,,,191068.5,191068.19999998808,190732.19999998808,190732.69999998808,190557.382,190890.702,
注視(1秒),canvas.Screen,12_14_1,2023-01-15T05:36:58.553Z,,,b,,,315,833.3000000000175,timeout,e.jpg,,,191900.39999997616,191900.19999998808,191068.19999998808,191068.59999996424,190890.702,191724.002,
空白時間2 (0.5秒),canvas.Screen,12_14_2,2023-01-15T05:36:58.900Z,,,b,,,315,349.9860000000044,timeout,e.jpg,,,192248.09999996424,192247.89999997616,191900.19999998808,191900.5,191724.002,192073.988,
刺激提示,canvas.Screen,12_14_3,2023-01-15T05:36:59.432Z,,,b,true,b,315,703.1119999642251,response,e.jpg,b,keypress(f),192780.09999996424,192777.09999996424,192247.89999997616,192248.19999998808,192073.988,192640.632,
フィードバック(0.5秒),canvas.Screen,12_14_4,2023-01-15T05:36:59.817Z,,,b,,,315,349.9859999999753,timeout,e.jpg,,,193164.39999997616,193164.09999996424,192623.966,192789.69999998808,192640.632,192990.618,
トライアル,flow.Sequence,12_14,2023-01-15T05:36:59.817Z,,,b,,,315,2606.717999964225,completion,e.jpg,,,193164.59999996424,193164.09999996424,190732.19999998808,190732.69999998808,190557.382,192990.618,
空白時間1 (0.5秒),canvas.Screen,12_15_0,2023-01-15T05:37:00.161Z,,,d,,,270,349.9860000000044,timeout,eR.jpg,,,193508.69999998808,193508.30000001192,193164.09999996424,193164.59999996424,192990.618,193340.604,
注視(1秒),canvas.Screen,12_15_1,2023-01-15T05:37:01.009Z,,,d,,,270,849.9660000000149,timeout,eR.jpg,,,194356.59999996424,194356.30000001192,193508.30000001192,193508.89999997616,193340.604,194190.57,
空白時間2 (0.5秒),canvas.Screen,12_15_2,2023-01-15T05:37:01.369Z,,,d,,,270,349.9860000000044,timeout,eR.jpg,,,194716.59999996424,194716.30000001192,194356.30000001192,194356.89999997616,194190.57,194540.556,
刺激提示,canvas.Screen,12_15_3,2023-01-15T05:37:01.972Z,,,d,true,d,270,769.9439999999886,response,eR.jpg,d,keypress(j),195319.39999997616,195310.5,194716.30000001192,194716.69999998808,194540.556,195173.864,
フィードバック(0.5秒),canvas.Screen,12_15_4,2023-01-15T05:37:02.353Z,,,d,,,270,350.52999999999884,timeout,eR.jpg,,,195700.5,195700.19999998808,195157.198,195321.5,195173.864,195524.394,
トライアル,flow.Sequence,12_15,2023-01-15T05:37:02.353Z,,,d,,,270,2709.5819999880914,completion,eR.jpg,,,195700.69999998808,195700.19999998808,193164.09999996424,193164.59999996424,192990.618,195524.394,
タスクのセット,flow.Loop,12,2023-01-15T05:37:02.353Z,,,,,,,41242.99499998809,completion,,,,195700.69999998808,195700.19999998808,154440.539,154605.19999998808,154457.205,195524.394,
空白時間1 (0.5秒),canvas.Screen,13_0_0,2023-01-15T05:37:02.697Z,,,d,,,135,349.9860000000044,timeout,eR.jpg,,,196044.5,196044.19999998808,195700.19999998808,195700.80000001192,195524.394,195874.38,
注視(1秒),canvas.Screen,13_0_1,2023-01-15T05:37:03.546Z,,,d,,,135,849.9659999999858,timeout,eR.jpg,,,196893.5,196893.30000001192,196044.19999998808,196044.59999996424,195874.38,196724.346,
空白時間2 (0.5秒),canvas.Screen,13_0_2,2023-01-15T05:37:03.900Z,,,d,,,135,349.9860000000044,timeout,eR.jpg,,,197248.09999996424,197247.80000001192,196893.30000001192,196893.59999996424,196724.346,197074.332,
刺激提示,canvas.Screen,13_0_3,2023-01-15T05:37:04.918Z,,,d,true,d,135,1187.1680000000051,response,eR.jpg,d,keypress(j),198265.39999997616,198261.5,197247.80000001192,197248.19999998808,197074.332,198124.29,
フィードバック(0.5秒),canvas.Screen,13_0_4,2023-01-15T05:37:05.300Z,,,d,,,135,349.9860000000044,timeout,eR.jpg,,,198648.09999996424,198647.80000001192,198107.624,198266.89999997616,198124.29,198474.276,
トライアル,flow.Sequence,13_0,2023-01-15T05:37:05.301Z,,,d,,,135,3123.4060000119207,completion,eR.jpg,,,198648.30000001192,198647.80000001192,195700.19999998808,195700.80000001192,195524.394,198474.276,
空白時間1 (0.5秒),canvas.Screen,13_1_0,2023-01-15T05:37:05.657Z,,,b,,,45,366.65200000000186,timeout,e.jpg,,,199004.59999996424,199004.30000001192,198647.80000001192,198648.30000001192,198474.276,198840.928,
注視(1秒),canvas.Screen,13_1_1,2023-01-15T05:37:06.505Z,,,b,,,45,849.9659999999858,timeout,e.jpg,,,199852.59999996424,199852.30000001192,199004.30000001192,199004.69999998808,198840.928,199690.894,
空白時間2 (0.5秒),canvas.Screen,13_1_2,2023-01-15T05:37:06.873Z,,,b,,,45,366.65200000000186,timeout,e.jpg,,,200220.59999996424,200220.30000001192,199852.30000001192,199852.80000001192,199690.894,200057.546,
刺激提示,canvas.Screen,13_1_3,2023-01-15T05:37:07.510Z,,,b,true,b,45,790.5539999642351,response,e.jpg,b,keypress(f),200858,200848.09999996424,200220.30000001192,200220.89999997616,200057.546,200724.186,
フィードバック(0.5秒),canvas.Screen,13_1_4,2023-01-15T05:37:07.900Z,,,b,,,45,349.9860000000044,timeout,e.jpg,,,201247.69999998808,201247.39999997616,200707.52,200872.19999998808,200724.186,201074.172,
トライアル,flow.Sequence,13_1,2023-01-15T05:37:07.900Z,,,b,,,45,2773.1239999761456,completion,e.jpg,,,201247.89999997616,201247.39999997616,198647.80000001192,198648.30000001192,198474.276,201074.172,
空白時間1 (0.5秒),canvas.Screen,13_2_0,2023-01-15T05:37:08.250Z,,,b,,,180,349.9860000000044,timeout,e.jpg,,,201598.09999996424,201597.80000001192,201247.39999997616,201247.89999997616,201074.172,201424.158,
注視(1秒),canvas.Screen,13_2_1,2023-01-15T05:37:09.097Z,,,b,,,180,849.9660000000149,timeout,e.jpg,,,202444.5,202444.19999998808,201597.80000001192,201598.19999998808,201424.158,202274.124,
空白時間2 (0.5秒),canvas.Screen,13_2_2,2023-01-15T05:37:09.441Z,,,b,,,180,349.9859999999753,timeout,e.jpg,,,202788.5,202788.30000001192,202444.19999998808,202444.59999996424,202274.124,202624.11,
刺激提示,canvas.Screen,13_2_3,2023-01-15T05:37:10.336Z,,,b,true,b,180,1055.690000011935,response,e.jpg,b,keypress(f),203683.30000001192,203679.80000001192,202788.30000001192,202788.59999996424,202624.11,203540.74,
フィードバック(0.5秒),canvas.Screen,13_2_4,2023-01-15T05:37:10.713Z,,,b,,,180,349.9860000000044,timeout,e.jpg,,,204060.39999997616,204060.19999998808,203524.074,203685.09999996424,203540.74,203890.726,
トライアル,flow.Sequence,13_2,2023-01-15T05:37:10.713Z,,,b,,,180,2986.0279999880877,completion,e.jpg,,,204060.59999996424,204060.19999998808,201247.39999997616,201247.89999997616,201074.172,203890.726,
空白時間1 (0.5秒),canvas.Screen,13_3_0,2023-01-15T05:37:11.073Z,,,b,,,135,366.65200000000186,timeout,e.jpg,,,204420.5,204420.19999998808,204060.19999998808,204060.69999998808,203890.726,204257.378,
注視(1秒),canvas.Screen,13_3_1,2023-01-15T05:37:11.929Z,,,b,,,135,849.9660000000149,timeout,e.jpg,,,205276.5,205276.19999998808,204420.19999998808,204420.59999996424,204257.378,205107.344,
空白時間2 (0.5秒),canvas.Screen,13_3_2,2023-01-15T05:37:12.281Z,,,b,,,135,349.9859999999753,timeout,e.jpg,,,205628.5,205628.19999998808,205276.19999998808,205276.59999996424,205107.344,205457.33,
刺激提示,canvas.Screen,13_3_3,2023-01-15T05:37:13.003Z,,,b,true,b,135,889.9700000119337,response,e.jpg,b,keypress(f),206351.19999998808,206347.30000001192,205628.19999998808,205628.59999996424,205457.33,206191.174,
フィードバック(0.5秒),canvas.Screen,13_3_4,2023-01-15T05:37:13.369Z,,,b,,,135,349.9860000000044,timeout,e.jpg,,,206716.30000001192,206716.09999996424,206174.508,206352.59999996424,206191.174,206541.16,
トライアル,flow.Sequence,13_3,2023-01-15T05:37:13.369Z,,,b,,,135,2825.373999964242,completion,e.jpg,,,206716.5,206716.09999996424,204060.19999998808,204060.59999996424,203890.726,206541.16,
空白時間1 (0.5秒),canvas.Screen,13_4_0,2023-01-15T05:37:13.705Z,,,b,,,0,333.320000000007,timeout,e.jpg,,,207052.5,207052.30000001192,206716.09999996424,206716.59999996424,206541.16,206874.48,
注視(1秒),canvas.Screen,13_4_1,2023-01-15T05:37:14.545Z,,,b,,,0,849.9659999999858,timeout,e.jpg,,,207892.39999997616,207892.19999998808,207052.30000001192,207052.69999998808,206874.48,207724.446,
空白時間2 (0.5秒),canvas.Screen,13_4_2,2023-01-15T05:37:14.900Z,,,b,,,0,349.9860000000044,timeout,e.jpg,,,208248.09999996424,208247.80000001192,207892.19999998808,207892.5,207724.446,208074.432,
刺激提示,canvas.Screen,13_4_3,2023-01-15T05:37:15.416Z,,,b,true,b,0,685.5679999999993,response,e.jpg,b,keypress(f),208764.09999996424,208760,208247.80000001192,208248.30000001192,208074.432,208624.41,
フィードバック(0.5秒),canvas.Screen,13_4_4,2023-01-15T05:37:15.800Z,,,b,,,0,349.9860000000044,timeout,e.jpg,,,209148.19999998808,209147.89999997616,208607.744,208775.19999998808,208624.41,208974.396,
トライアル,flow.Sequence,13_4,2023-01-15T05:37:15.801Z,,,b,,,0,2606.7399999761546,completion,e.jpg,,,209148.39999997616,209147.89999997616,206716.09999996424,206716.5,206541.16,208974.396,
空白時間1 (0.5秒),canvas.Screen,13_5_0,2023-01-15T05:37:16.145Z,,,d,,,45,349.9860000000044,timeout,eR.jpg,,,209492.39999997616,209492.19999998808,209147.89999997616,209148.5,208974.396,209324.382,
注視(1秒),canvas.Screen,13_5_1,2023-01-15T05:37:16.992Z,,,d,,,45,849.9659999999858,timeout,eR.jpg,,,210339.69999998808,210339.30000001192,209492.19999998808,209492.59999996424,209324.382,210174.348,
空白時間2 (0.5秒),canvas.Screen,13_5_2,2023-01-15T05:37:17.345Z,,,d,,,45,349.9860000000044,timeout,eR.jpg,,,210692.39999997616,210692.19999998808,210339.30000001192,210339.89999997616,210174.348,210524.334,
刺激提示,canvas.Screen,13_5_3,2023-01-15T05:37:17.924Z,,,d,true,d,45,744.8659999880765,response,eR.jpg,d,keypress(j),211272.30000001192,211269.19999998808,210692.19999998808,210692.59999996424,210524.334,211124.31,
フィードバック(0.5秒),canvas.Screen,13_5_4,2023-01-15T05:37:18.300Z,,,d,,,45,349.9860000000044,timeout,eR.jpg,,,211648.09999996424,211647.80000001192,211107.644,211273,211124.31,211474.296,
トライアル,flow.Sequence,13_5,2023-01-15T05:37:18.301Z,,,d,,,45,2673.404000011913,completion,eR.jpg,,,211648.30000001192,211647.80000001192,209147.89999997616,209148.5,208974.396,211474.296,
空白時間1 (0.5秒),canvas.Screen,13_6_0,2023-01-15T05:37:18.650Z,,,b,,,315,349.9860000000044,timeout,e.jpg,,,211998.09999996424,211997.80000001192,211647.80000001192,211648.39999997616,211474.296,211824.282,
注視(1秒),canvas.Screen,13_6_1,2023-01-15T05:37:19.500Z,,,b,,,315,849.9659999999858,timeout,e.jpg,,,212848,212847.80000001192,211997.80000001192,211998.30000001192,211824.282,212674.248,
空白時間2 (0.5秒),canvas.Screen,13_6_2,2023-01-15T05:37:19.850Z,,,b,,,315,349.9860000000044,timeout,e.jpg,,,213197.39999997616,213197.09999996424,212847.80000001192,212848.19999998808,212674.248,213024.234,
刺激提示,canvas.Screen,13_6_3,2023-01-15T05:37:20.390Z,,,b,true,b,315,710.5660000119242,response,e.jpg,b,keypress(f),213738.30000001192,213734.80000001192,213197.09999996424,213197.5,213024.234,213590.878,
フィードバック(0.5秒),canvas.Screen,13_6_4,2023-01-15T05:37:20.769Z,,,b,,,315,349.9860000000044,timeout,e.jpg,,,214116.39999997616,214116.19999998808,213574.212,213739.80000001192,213590.878,213940.864,
トライアル,flow.Sequence,13_6,2023-01-15T05:37:20.769Z,,,b,,,315,2641.903999988077,completion,e.jpg,,,214116.80000001192,214116.19999998808,211647.80000001192,211648.39999997616,211474.296,213940.864,
空白時間1 (0.5秒),canvas.Screen,13_7_0,2023-01-15T05:37:21.113Z,,,d,,,270,349.9860000000044,timeout,eR.jpg,,,214460.5,214460.19999998808,214116.19999998808,214116.80000001192,213940.864,214290.85,
注視(1秒),canvas.Screen,13_7_1,2023-01-15T05:37:21.961Z,,,d,,,270,849.9659999999858,timeout,eR.jpg,,,215308.39999997616,215308.19999998808,214460.19999998808,214460.59999996424,214290.85,215140.816,
空白時間2 (0.5秒),canvas.Screen,13_7_2,2023-01-15T05:37:22.313Z,,,d,,,270,349.9860000000044,timeout,eR.jpg,,,215660.39999997616,215660.09999996424,215308.19999998808,215308.59999996424,215140.816,215490.802,
刺激提示,canvas.Screen,13_7_3,2023-01-15T05:37:22.965Z,,,d,true,d,270,817.4980000119249,response,eR.jpg,d,keypress(j),216312.30000001192,216308.30000001192,215660.09999996424,215660.59999996424,215490.802,216157.968,
フィードバック(0.5秒),canvas.Screen,13_7_4,2023-01-15T05:37:23.321Z,,,d,,,270,333.320000000007,timeout,eR.jpg,,,216668.5,216668.19999998808,216141.302,216313.5,216157.968,216491.288,
トライアル,flow.Sequence,13_7,2023-01-15T05:37:23.321Z,,,d,,,270,2727.3359999880777,completion,eR.jpg,,,216668.59999996424,216668.19999998808,214116.19999998808,214116.80000001192,213940.864,216491.288,
空白時間1 (0.5秒),canvas.Screen,13_8_0,2023-01-15T05:37:23.672Z,,,d,,,0,349.9860000000044,timeout,eR.jpg,,,217019.59999996424,217019.30000001192,216668.19999998808,216668.80000001192,216491.288,216841.274,
注視(1秒),canvas.Screen,13_8_1,2023-01-15T05:37:24.508Z,,,d,,,0,849.9659999999858,timeout,eR.jpg,,,217856.19999998808,217855.89999997616,217019.30000001192,217019.69999998808,216841.274,217691.24,
空白時間2 (0.5秒),canvas.Screen,13_8_2,2023-01-15T05:37:24.820Z,,,d,,,0,299.9880000000121,timeout,eR.jpg,,,218167.5,218167.30000001192,217855.89999997616,217856.30000001192,217691.24,217991.228,
刺激提示,canvas.Screen,13_8_3,2023-01-15T05:37:25.364Z,,,d,true,d,0,717.4719999880763,response,eR.jpg,d,keypress(j),218712,218708.69999998808,218167.30000001192,218167.59999996424,217991.228,218574.538,
フィードバック(0.5秒),canvas.Screen,13_8_4,2023-01-15T05:37:25.753Z,,,d,,,0,349.9860000000044,timeout,eR.jpg,,,219100.59999996424,219100.30000001192,218557.872,218719.80000001192,218574.538,218924.524,
トライアル,flow.Sequence,13_8,2023-01-15T05:37:25.753Z,,,d,,,0,2609.0120000119205,completion,eR.jpg,,,219100.69999998808,219100.30000001192,216668.19999998808,216668.80000001192,216491.288,218924.524,
空白時間1 (0.5秒),canvas.Screen,13_9_0,2023-01-15T05:37:26.097Z,,,d,,,315,349.9860000000044,timeout,eR.jpg,,,219444.5,219444.19999998808,219100.30000001192,219100.80000001192,218924.524,219274.51,
注視(1秒),canvas.Screen,13_9_1,2023-01-15T05:37:26.936Z,,,d,,,315,833.2999999999884,timeout,eR.jpg,,,220284.30000001192,220284.09999996424,219444.19999998808,219444.59999996424,219274.51,220107.81,
空白時間2 (0.5秒),canvas.Screen,13_9_2,2023-01-15T05:37:27.280Z,,,d,,,315,349.9860000000044,timeout,eR.jpg,,,220628.09999996424,220627.80000001192,220284.09999996424,220284.39999997616,220107.81,220457.796,
刺激提示,canvas.Screen,13_9_3,2023-01-15T05:37:27.761Z,,,d,true,d,315,647.7039999999979,response,eR.jpg,d,keypress(j),221109,221105.5,220627.80000001192,220628.19999998808,220457.796,220957.776,
フィードバック(0.5秒),canvas.Screen,13_9_4,2023-01-15T05:37:28.129Z,,,d,,,315,349.9859999999753,timeout,eR.jpg,,,221476.39999997616,221476.19999998808,220941.11,221110.09999996424,220957.776,221307.762,
トライアル,flow.Sequence,13_9,2023-01-15T05:37:28.129Z,,,d,,,315,2551.675999988074,completion,eR.jpg,,,221476.5,221476.19999998808,219100.30000001192,219100.80000001192,218924.524,221307.762,
空白時間1 (0.5秒),canvas.Screen,13_10_0,2023-01-15T05:37:28.481Z,,,b,,,90,349.9860000000044,timeout,e.jpg,,,221828.39999997616,221828.09999996424,221476.19999998808,221476.69999998808,221307.762,221657.748,
注視(1秒),canvas.Screen,13_10_1,2023-01-15T05:37:29.320Z,,,b,,,90,833.3000000000175,timeout,e.jpg,,,222668.09999996424,222667.80000001192,221828.09999996424,221828.59999996424,221657.748,222491.048,
空白時間2 (0.5秒),canvas.Screen,13_10_2,2023-01-15T05:37:29.673Z,,,b,,,90,366.65200000000186,timeout,e.jpg,,,223021.19999998808,223020.89999997616,222667.80000001192,222668.19999998808,222491.048,222857.7,
刺激提示,canvas.Screen,13_10_3,2023-01-15T05:37:30.192Z,,,b,true,b,90,677.6000000119093,response,e.jpg,b,keypress(f),223539.59999996424,223535.30000001192,223020.89999997616,223021.5,222857.7,223391.012,
フィードバック(0.5秒),canvas.Screen,13_10_4,2023-01-15T05:37:30.553Z,,,b,,,90,333.320000000007,timeout,e.jpg,,,223900.5,223900.19999998808,223374.346,223541.5,223391.012,223724.332,
トライアル,flow.Sequence,13_10,2023-01-15T05:37:30.553Z,,,b,,,90,2592.437999988091,completion,e.jpg,,,223900.80000001192,223900.19999998808,221476.19999998808,221476.59999996424,221307.762,223724.332,
空白時間1 (0.5秒),canvas.Screen,13_11_0,2023-01-15T05:37:30.900Z,,,b,,,225,349.9860000000044,timeout,e.jpg,,,224248,224247.80000001192,223900.19999998808,223900.80000001192,223724.332,224074.318,
注視(1秒),canvas.Screen,13_11_1,2023-01-15T05:37:31.737Z,,,b,,,225,833.2999999999884,timeout,e.jpg,,,225084.5,225084.19999998808,224247.80000001192,224248.19999998808,224074.318,224907.618,
空白時間2 (0.5秒),canvas.Screen,13_11_2,2023-01-15T05:37:32.080Z,,,b,,,225,349.9860000000044,timeout,e.jpg,,,225427.89999997616,225427.69999998808,225084.19999998808,225084.69999998808,224907.618,225257.604,
刺激提示,canvas.Screen,13_11_3,2023-01-15T05:37:32.797Z,,,b,true,b,225,883.7959999761661,response,e.jpg,b,keypress(f),226145,226141.39999997616,225427.69999998808,225428,225257.604,225990.908,
フィードバック(0.5秒),canvas.Screen,13_11_4,2023-01-15T05:37:33.169Z,,,b,,,225,350.5370000000112,timeout,e.jpg,,,226517.09999996424,226516.80000001192,225974.242,226146,225990.908,226341.445,
トライアル,flow.Sequence,13_11,2023-01-15T05:37:33.169Z,,,b,,,225,2792.468000011926,completion,e.jpg,,,226517.30000001192,226516.80000001192,223900.19999998808,223900.80000001192,223724.332,226341.445,
空白時間1 (0.5秒),canvas.Screen,13_12_0,2023-01-15T05:37:33.505Z,,,d,,,90,333.320000000007,timeout,eR.jpg,,,226852.5,226852.19999998808,226516.80000001192,226517.39999997616,226341.445,226674.765,
注視(1秒),canvas.Screen,13_12_1,2023-01-15T05:37:34.336Z,,,d,,,90,833.2999999999884,timeout,eR.jpg,,,227684.39999997616,227684.19999998808,226852.19999998808,226852.59999996424,226674.765,227508.065,
空白時間2 (0.5秒),canvas.Screen,13_12_2,2023-01-15T05:37:34.680Z,,,d,,,90,349.9860000000044,timeout,eR.jpg,,,228028.19999998808,228027.89999997616,227684.19999998808,227684.5,227508.065,227858.051,
刺激提示,canvas.Screen,13_12_3,2023-01-15T05:37:35.402Z,,,d,true,d,90,887.8489999761514,response,eR.jpg,d,keypress(j),228750.39999997616,228745.89999997616,228027.89999997616,228028.30000001192,227858.051,228608.021,
フィードバック(0.5秒),canvas.Screen,13_12_4,2023-01-15T05:37:35.785Z,,,d,,,90,349.9860000000044,timeout,eR.jpg,,,229132.5,229132.30000001192,228591.355,228761.30000001192,228608.021,228958.007,
トライアル,flow.Sequence,13_12,2023-01-15T05:37:35.785Z,,,d,,,90,2790.855000011914,completion,eR.jpg,,,229132.89999997616,229132.30000001192,226516.80000001192,226517.39999997616,226341.445,228958.007,
空白時間1 (0.5秒),canvas.Screen,13_13_0,2023-01-15T05:37:36.129Z,,,b,,,270,349.9859999999753,timeout,e.jpg,,,229476.59999996424,229476.19999998808,229132.30000001192,229133.30000001192,228958.007,229307.993,
注視(1秒),canvas.Screen,13_13_1,2023-01-15T05:37:36.978Z,,,b,,,270,849.9660000000149,timeout,e.jpg,,,230326.30000001192,230326.09999996424,229476.19999998808,229476.80000001192,229307.993,230157.959,
空白時間2 (0.5秒),canvas.Screen,13_13_2,2023-01-15T05:37:37.328Z,,,b,,,270,349.9860000000044,timeout,e.jpg,,,230676.39999997616,230676.19999998808,230326.09999996424,230326.59999996424,230157.959,230507.945,
刺激提示,canvas.Screen,13_13_3,2023-01-15T05:37:37.982Z,,,b,true,b,270,819.554999999993,response,e.jpg,b,keypress(f),231330,231327.5,230676.19999998808,230676.59999996424,230507.945,231174.585,
フィードバック(0.5秒),canvas.Screen,13_13_4,2023-01-15T05:37:38.352Z,,,b,,,270,349.9860000000044,timeout,e.jpg,,,231700.39999997616,231700.19999998808,231157.919,231331,231174.585,231524.571,
トライアル,flow.Sequence,13_13,2023-01-15T05:37:38.353Z,,,b,,,270,2742.1929999880667,completion,e.jpg,,,231700.59999996424,231700.19999998808,229132.30000001192,229133.30000001192,228958.007,231524.571,
空白時間1 (0.5秒),canvas.Screen,13_14_0,2023-01-15T05:37:38.700Z,,,d,,,225,349.9860000000044,timeout,eR.jpg,,,232047.39999997616,232047.30000001192,231700.19999998808,231700.69999998808,231524.571,231874.557,
注視(1秒),canvas.Screen,13_14_1,2023-01-15T05:37:39.537Z,,,d,,,225,833.2999999999884,timeout,eR.jpg,,,232884.59999996424,232884.30000001192,232047.30000001192,232047.59999996424,231874.557,232707.857,
空白時間2 (0.5秒),canvas.Screen,13_14_2,2023-01-15T05:37:39.883Z,,,d,,,225,349.9860000000044,timeout,eR.jpg,,,233230.5,233230.30000001192,232884.30000001192,232884.69999998808,232707.857,233057.843,
刺激提示,canvas.Screen,13_14_3,2023-01-15T05:37:40.589Z,,,d,true,d,225,875.9570000119274,response,eR.jpg,d,keypress(j),233937.39999997616,233933.80000001192,233230.30000001192,233230.59999996424,233057.843,233791.147,
フィードバック(0.5秒),canvas.Screen,13_14_4,2023-01-15T05:37:40.969Z,,,d,,,225,349.9860000000044,timeout,eR.jpg,,,234316.5,234316.19999998808,233774.481,233938.39999997616,233791.147,234141.133,
トライアル,flow.Sequence,13_14,2023-01-15T05:37:40.969Z,,,d,,,225,2791.628999988083,completion,eR.jpg,,,234316.69999998808,234316.19999998808,231700.19999998808,231700.69999998808,231524.571,234141.133,
空白時間1 (0.5秒),canvas.Screen,13_15_0,2023-01-15T05:37:41.304Z,,,d,,,180,333.320000000007,timeout,eR.jpg,,,234652.5,234652.19999998808,234316.19999998808,234316.80000001192,234141.133,234474.453,
注視(1秒),canvas.Screen,13_15_1,2023-01-15T05:37:42.145Z,,,d,,,180,849.9659999999858,timeout,eR.jpg,,,235492.5,235492.19999998808,234652.19999998808,234652.59999996424,234474.453,235324.419,
空白時間2 (0.5秒),canvas.Screen,13_15_2,2023-01-15T05:37:42.500Z,,,d,,,180,349.9860000000044,timeout,eR.jpg,,,235848.09999996424,235847.80000001192,235492.19999998808,235492.69999998808,235324.419,235674.405,
刺激提示,canvas.Screen,13_15_3,2023-01-15T05:37:43.839Z,,,d,true,d,180,1508.395000011922,response,eR.jpg,d,keypress(j),237186.5,237182.80000001192,235847.80000001192,235848.30000001192,235674.405,237057.683,
