sender,sender_type,sender_id,timestamp,meta,,answer,correct,correctResponse,deg,duration,ended_on,image,response,response_action,time_commit,time_end,time_render,time_run,time_show,time_switch,url
イントロ1,html.Page,0,2023-01-09T08:24:10.028Z,"{""labjs_version"":""20.2.4"",""labjs_build"":{""flavor"":""development"",""commit"":""f5b4a49f956347addd546a832a3327688c2c0fef""},""location"":""https://labjs.felixhenninger.com/api/labjs_preview/index.html"",""userAgent"":""Mozilla/5.0 (Macintosh; Intel Mac OS X 10_15_7) AppleWebKit/537.36 (KHTML, like Gecko) Chrome/108.0.0.0 Safari/537.36"",""platform"":""MacIntel"",""language"":""ja-JP"",""locale"":""ja"",""timeZone"":""Asia/Tokyo"",""timezoneOffset"":-540,""screen_width"":1920,""screen_height"":1080,""scroll_width"":1440,""scroll_height"":753,""window_innerWidth"":1440,""window_innerHeight"":801,""devicePixelRatio"":1}",,,,,,12209.181999999906,form submission,,,,12709.5,12708.899999999907,419.69,579.3999999999069,499.718,12637.691,{}
イントロ2,html.Page,1,2023-01-09T08:24:18.815Z,,,,,,,8858.909000000092,form submission,,,,21497.100000000093,21496.600000000093,12624.353,12710.09999999986,12637.691,21427.433,
イントロ3,html.Page,2,2023-01-09T08:24:28.098Z,,,,,,,9352.667000000092,form submission,,,,30780.399999999907,30780.100000000093,21414.095,21497.399999999907,21427.433,30710.681,
イントロ4,html.Page,3,2023-01-09T08:24:41.864Z,,,,,,,13834.819,form submission,,,,44546,44545.5,30697.343,30780.5,30710.681,44476.141,
イントロ5,html.Page,4,2023-01-09T08:24:44.584Z,,,,,,,2790.1589999998105,form submission,,,,47266.5,47266.299999999814,44462.803,44546.299999999814,44476.141,47210.431,
できるだけ早く正確に,canvas.Screen,5,2023-01-09T08:24:45.594Z,,,,,,,1000.3500000000058,timeout,,,,48276.5,48197.443,47183.755,47266.69999999972,47210.431,48210.781,
空白時間1 (0.5秒),canvas.Screen,6_0_0,2023-01-09T08:24:46.087Z,,,d,,,315,493.50599999999395,timeout,eR.jpg,,,48769.10000000009,48690.949,48197.443,48277,48210.781,48704.287,
注視(1秒),canvas.Screen,6_0_1,2023-01-09T08:24:47.087Z,,,d,,,315,1000.3500000000058,timeout,eR.jpg,,,49769.19999999972,49691.299,48690.949,48769.60000000009,48704.287,49704.637,
空白時間2 (0.5秒),canvas.Screen,6_0_2,2023-01-09T08:24:47.581Z,,,d,,,315,493.50599999999395,timeout,eR.jpg,,,50263.10000000009,50184.805,49691.299,49769.5,49704.637,50198.143,
刺激提示(練習),canvas.Screen,6_0_3,2023-01-09T08:24:49.091Z,,,d,true,d,315,1569.2569999999105,response,eR.jpg,d,keypress(j),51773.39999999991,51767.39999999991,50184.805,50263.39999999991,50198.143,51705.337,
フィードバック(0.5秒),canvas.Screen,6_0_4,2023-01-09T08:24:49.582Z,,,d,,,315,493.5060000000012,timeout,eR.jpg,,,52264.19999999972,52185.505,51691.999,51775.19999999972,51705.337,52198.843,
トライアル,flow.Sequence,6_0,2023-01-09T08:24:49.583Z,,,d,,,315,3974.7239999999947,completion,eR.jpg,,,52265,52185.505,48197.443,48276.89999999991,48210.781,52198.843,
空白時間1 (0.5秒),canvas.Screen,6_1_0,2023-01-09T08:24:50.076Z,,,b,,,180,493.5060000000012,timeout,e.jpg,,,52757.89999999991,52679.011,52185.505,52265.39999999991,52198.843,52692.349,
注視(1秒),canvas.Screen,6_1_1,2023-01-09T08:24:51.075Z,,,b,,,180,1000.3499999999985,timeout,e.jpg,,,53757.60000000009,53679.361,52679.011,52758.19999999972,52692.349,53692.699,
空白時間2 (0.5秒),canvas.Screen,6_1_2,2023-01-09T08:24:51.569Z,,,b,,,180,493.5060000000012,timeout,e.jpg,,,54251.10000000009,54172.867,53679.361,53757.89999999991,53692.699,54186.205,
刺激提示(練習),canvas.Screen,6_1_3,2023-01-09T08:24:52.732Z,,,b,false,b,180,1222.3950000000914,response,e.jpg,d,keypress(j),55414.5,55408.60000000009,54172.867,54251.5,54186.205,55360.396,
フィードバック(0.5秒),canvas.Screen,6_1_4,2023-01-09T08:24:53.236Z,,,b,,,180,493.5060000000012,timeout,e.jpg,,,55918.799999999814,55840.564,55347.058,55429.19999999972,55360.396,55853.902,
トライアル,flow.Sequence,6_1,2023-01-09T08:24:53.237Z,,,b,,,180,3641.7209999999977,completion,e.jpg,,,55919.299999999814,55840.564,52185.505,52265.299999999814,52198.843,55853.902,
空白時間1 (0.5秒),canvas.Screen,6_2_0,2023-01-09T08:24:53.730Z,,,b,,,270,493.5060000000012,timeout,e.jpg,,,56412.19999999972,56334.07,55840.564,55919.60000000009,55853.902,56347.408,
注視(1秒),canvas.Screen,6_2_1,2023-01-09T08:24:54.731Z,,,b,,,270,1000.3499999999985,timeout,e.jpg,,,57413.5,57334.42,56334.07,56412.5,56347.408,57347.758,
空白時間2 (0.5秒),canvas.Screen,6_2_2,2023-01-09T08:24:55.224Z,,,b,,,270,493.5060000000012,timeout,e.jpg,,,57906.19999999972,57827.926,57334.42,57413.799999999814,57347.758,57841.264,
刺激提示(練習),canvas.Screen,6_2_3,2023-01-09T08:24:56.366Z,,,b,true,b,270,1200.8360000000903,response,e.jpg,b,keypress(f),59048.5,59042.10000000009,57827.926,57906.5,57841.264,58988.332,
フィードバック(0.5秒),canvas.Screen,6_2_4,2023-01-09T08:24:56.864Z,,,b,,,270,493.5060000000012,timeout,e.jpg,,,59546.799999999814,59468.5,58974.994,59050.10000000009,58988.332,59481.838,
トライアル,flow.Sequence,6_2,2023-01-09T08:24:56.865Z,,,b,,,270,3614.597999999998,completion,e.jpg,,,59547.19999999972,59468.5,55840.564,55919.39999999991,55853.902,59481.838,
空白時間1 (0.5秒),canvas.Screen,6_3_0,2023-01-09T08:24:57.359Z,,,d,,,135,493.50599999999395,timeout,eR.jpg,,,60041,59962.006,59468.5,59547.5,59481.838,59975.344,
注視(1秒),canvas.Screen,6_3_1,2023-01-09T08:24:58.359Z,,,d,,,135,1000.3500000000058,timeout,eR.jpg,,,61041,60962.356,59962.006,60041.39999999991,59975.344,60975.694,
空白時間2 (0.5秒),canvas.Screen,6_3_2,2023-01-09T08:24:58.852Z,,,d,,,135,493.50599999999395,timeout,eR.jpg,,,61534.60000000009,61455.862,60962.356,61041.299999999814,60975.694,61469.2,
刺激提示(練習),canvas.Screen,6_3_3,2023-01-09T08:24:59.649Z,,,d,false,d,135,855.9999999997235,response,eR.jpg,b,keypress(f),62331,62325.19999999972,61455.862,61535.10000000009,61469.2,62282.818,
フィードバック(0.5秒),canvas.Screen,6_3_4,2023-01-09T08:25:00.159Z,,,d,,,135,493.5060000000012,timeout,eR.jpg,,,62841.5,62762.986,62269.48,62347.299999999814,62282.818,62776.324,
トライアル,flow.Sequence,6_3,2023-01-09T08:25:00.159Z,,,d,,,135,3281.1479999999938,completion,eR.jpg,,,62841.89999999991,62762.986,59468.5,59547.39999999991,59481.838,62776.324,
練習試行(e),flow.Loop,6,2023-01-09T08:25:00.160Z,,,,,,,14552.204999999994,completion,,,,62842.10000000009,62762.986,48197.443,48276.799999999814,48210.781,62776.324,
イントロ6,html.Page,7,2023-01-09T08:25:02.085Z,,,,,,,1990.4759999998132,form submission,,,,64767.19999999972,64766.799999999814,62762.986,62842.299999999814,62776.324,64696.996,
できるだけ早く正確に,canvas.Screen,8,2023-01-09T08:25:03.080Z,,,,,,,1000.7339999999967,timeout,,,,65762.5,65684.392,64683.658,64767.5,64696.996,65697.73,
空白時間1 (0.5秒),canvas.Screen,9_0_0,2023-01-09T08:25:03.573Z,,,d,,,180,493.5060000000085,timeout,eR.jpg,,,66256,66177.898,65684.392,65763,65697.73,66191.236,
注視(1秒),canvas.Screen,9_0_1,2023-01-09T08:25:04.574Z,,,d,,,180,1000.3499999999913,timeout,eR.jpg,,,67256.79999999981,67178.248,66177.898,66256.3999999999,66191.236,67191.586,
空白時間2 (0.5秒),canvas.Screen,9_0_2,2023-01-09T08:25:05.067Z,,,d,,,180,493.5060000000085,timeout,eR.jpg,,,67749.69999999972,67671.754,67178.248,67257.1000000001,67191.586,67685.092,
刺激提示,canvas.Screen,9_0_3,2023-01-09T08:25:06.645Z,,,d,false,d,180,1636.2079999998095,response,eR.jpg,b,keypress(f),69327.1000000001,69321.29999999981,67671.754,67750,67685.092,69258.976,
フィードバック(0.5秒),canvas.Screen,9_0_4,2023-01-09T08:25:07.135Z,,,d,,,180,493.5060000000085,timeout,eR.jpg,,,69817.6000000001,69739.144,69245.638,69344,69258.976,69752.482,
トライアル,flow.Sequence,9_0,2023-01-09T08:25:07.136Z,,,d,,,180,4041.4140000000043,completion,eR.jpg,,,69818.1000000001,69739.144,65684.392,65763,65697.73,69752.482,
空白時間1 (0.5秒),canvas.Screen,9_1_0,2023-01-09T08:25:07.629Z,,,b,,,315,493.50599999999395,timeout,e.jpg,,,70311.5,70232.65,69739.144,69818.3999999999,69752.482,70245.988,
注視(1秒),canvas.Screen,9_1_1,2023-01-09T08:25:08.628Z,,,b,,,315,1000.3500000000058,timeout,e.jpg,,,71311,71233,70232.65,70311.8999999999,70245.988,71246.338,
空白時間2 (0.5秒),canvas.Screen,9_1_2,2023-01-09T08:25:09.122Z,,,b,,,315,493.50599999999395,timeout,e.jpg,,,71804.79999999981,71726.506,71233,71311.29999999981,71246.338,71739.844,
刺激提示,canvas.Screen,9_1_3,2023-01-09T08:25:10.109Z,,,b,true,b,315,1045.7560000000958,response,e.jpg,b,keypress(f),72791.3999999999,72785.6000000001,71726.506,71805.1000000001,71739.844,72726.856,
フィードバック(0.5秒),canvas.Screen,9_1_4,2023-01-09T08:25:10.602Z,,,b,,,315,493.50599999999395,timeout,e.jpg,,,73285.1000000001,73207.024,72713.518,72793.19999999972,72726.856,73220.362,
トライアル,flow.Sequence,9_1,2023-01-09T08:25:10.603Z,,,b,,,315,3454.5420000000013,completion,e.jpg,,,73285.5,73207.024,69739.144,69818.29999999981,69752.482,73220.362,
空白時間1 (0.5秒),canvas.Screen,9_2_0,2023-01-09T08:25:11.096Z,,,d,,,225,493.5060000000085,timeout,eR.jpg,,,73778.69999999972,73700.53,73207.024,73285.69999999972,73220.362,73713.868,
注視(1秒),canvas.Screen,9_2_1,2023-01-09T08:25:12.096Z,,,d,,,225,1000.3499999999913,timeout,eR.jpg,,,74779.1000000001,74700.88,73700.53,73779.1000000001,73713.868,74714.218,
空白時間2 (0.5秒),canvas.Screen,9_2_2,2023-01-09T08:25:12.591Z,,,d,,,225,493.7950000000128,timeout,eR.jpg,,,75273.5,75194.675,74700.88,74779.6000000001,74714.218,75208.013,
刺激提示,canvas.Screen,9_2_3,2023-01-09T08:25:13.602Z,,,d,true,d,225,1070.8869999999006,response,eR.jpg,d,keypress(j),76284.8999999999,76278.8999999999,75194.675,75273.8999999999,75208.013,76235.039,
フィードバック(0.5秒),canvas.Screen,9_2_4,2023-01-09T08:25:14.111Z,,,d,,,225,493.50599999999395,timeout,eR.jpg,,,76793.6000000001,76715.207,76221.701,76301.79999999981,76235.039,76728.545,
トライアル,flow.Sequence,9_2,2023-01-09T08:25:14.111Z,,,d,,,225,3494.845000000001,completion,eR.jpg,,,76794,76715.207,73207.024,73285.69999999972,73220.362,76728.545,
空白時間1 (0.5秒),canvas.Screen,9_3_0,2023-01-09T08:25:14.604Z,,,d,,,90,493.5060000000085,timeout,eR.jpg,,,77287,77208.713,76715.207,76794.29999999981,76728.545,77222.051,
注視(1秒),canvas.Screen,9_3_1,2023-01-09T08:25:15.605Z,,,d,,,90,1000.3499999999913,timeout,eR.jpg,,,78287.1000000001,78209.063,77208.713,77287.5,77222.051,78222.401,
空白時間2 (0.5秒),canvas.Screen,9_3_2,2023-01-09T08:25:16.098Z,,,d,,,90,493.5060000000085,timeout,eR.jpg,,,78781,78702.569,78209.063,78287.6000000001,78222.401,78715.907,
刺激提示,canvas.Screen,9_3_3,2023-01-09T08:25:17.341Z,,,d,true,d,90,1302.0929999999935,response,eR.jpg,d,keypress(j),80024,80018,78702.569,78781.3999999999,78715.907,79969.679,
フィードバック(0.5秒),canvas.Screen,9_3_4,2023-01-09T08:25:17.846Z,,,d,,,90,493.50599999999395,timeout,eR.jpg,,,80528.29999999981,80449.847,79956.341,80039.5,79969.679,80463.185,
トライアル,flow.Sequence,9_3,2023-01-09T08:25:17.846Z,,,d,,,90,3721.301999999996,completion,eR.jpg,,,80528.69999999972,80449.847,76715.207,76794.19999999972,76728.545,80463.185,
空白時間1 (0.5秒),canvas.Screen,9_4_0,2023-01-09T08:25:18.339Z,,,b,,,90,493.5060000000085,timeout,e.jpg,,,81021.69999999972,80943.353,80449.847,80529,80463.185,80956.691,
注視(1秒),canvas.Screen,9_4_1,2023-01-09T08:25:19.339Z,,,b,,,90,1000.3499999999913,timeout,e.jpg,,,82021.69999999972,81943.703,80943.353,81022.1000000001,80956.691,81957.041,
空白時間2 (0.5秒),canvas.Screen,9_4_2,2023-01-09T08:25:19.833Z,,,b,,,90,493.5060000000085,timeout,e.jpg,,,82515.8999999999,82437.209,81943.703,82022.1000000001,81957.041,82450.547,
刺激提示,canvas.Screen,9_4_3,2023-01-09T08:25:20.866Z,,,b,true,b,90,1091.452999999994,response,e.jpg,b,keypress(f),83548.79999999981,83542,82437.209,82516.29999999981,82450.547,83490.911,
フィードバック(0.5秒),canvas.Screen,9_4_4,2023-01-09T08:25:21.367Z,,,b,,,90,493.5060000000085,timeout,e.jpg,,,84049.29999999981,83971.079,83477.573,83563.3999999999,83490.911,83984.417,
トライアル,flow.Sequence,9_4,2023-01-09T08:25:21.367Z,,,b,,,90,3507.8940000000002,completion,e.jpg,,,84049.79999999981,83971.079,80449.847,80528.8999999999,80463.185,83984.417,
空白時間1 (0.5秒),canvas.Screen,9_5_0,2023-01-09T08:25:21.860Z,,,b,,,180,493.50599999999395,timeout,e.jpg,,,84542.29999999981,84464.585,83971.079,84050,83984.417,84477.923,
注視(1秒),canvas.Screen,9_5_1,2023-01-09T08:25:22.860Z,,,b,,,180,1000.3500000000058,timeout,e.jpg,,,85543,85464.935,84464.585,84542.69999999972,84477.923,85478.273,
空白時間2 (0.5秒),canvas.Screen,9_5_2,2023-01-09T08:25:23.354Z,,,b,,,180,493.8289999999979,timeout,e.jpg,,,86036.69999999972,85958.764,85464.935,85543.3999999999,85478.273,85972.102,
刺激提示,canvas.Screen,9_5_3,2023-01-09T08:25:23.999Z,,,b,true,b,180,703.398000000001,response,e.jpg,b,keypress(f),86681.3999999999,86675.5,85958.764,86037.19999999972,85972.102,86612.326,
フィードバック(0.5秒),canvas.Screen,9_5_4,2023-01-09T08:25:24.488Z,,,b,,,180,493.50599999999395,timeout,e.jpg,,,87170.5,87092.494,86598.988,86683.79999999981,86612.326,87105.832,
トライアル,flow.Sequence,9_5,2023-01-09T08:25:24.488Z,,,b,,,180,3108.077000000005,completion,e.jpg,,,87171,87092.494,83971.079,84050,83984.417,87105.832,
空白時間1 (0.5秒),canvas.Screen,9_6_0,2023-01-09T08:25:24.981Z,,,b,,,0,493.5060000000085,timeout,e.jpg,,,87664,87586,87092.494,87171.29999999981,87105.832,87599.338,
注視(1秒),canvas.Screen,9_6_1,2023-01-09T08:25:25.982Z,,,b,,,0,1000.3499999999913,timeout,e.jpg,,,88664.69999999972,88586.35,87586,87664.3999999999,87599.338,88599.688,
空白時間2 (0.5秒),canvas.Screen,9_6_2,2023-01-09T08:25:26.475Z,,,b,,,0,493.5060000000085,timeout,e.jpg,,,89157.79999999981,89079.856,88586.35,88665.1000000001,88599.688,89093.194,
刺激提示,canvas.Screen,9_6_3,2023-01-09T08:25:27.455Z,,,b,true,b,0,1037.90600000009,response,e.jpg,b,keypress(f),90137.5,90131.1000000001,89079.856,89158.1000000001,89093.194,90080.206,
フィードバック(0.5秒),canvas.Screen,9_6_4,2023-01-09T08:25:27.956Z,,,b,,,0,493.50599999999395,timeout,e.jpg,,,90638.5,90560.374,90066.868,90154.19999999972,90080.206,90573.712,
トライアル,flow.Sequence,9_6,2023-01-09T08:25:27.956Z,,,b,,,0,3454.5420000000013,completion,e.jpg,,,90639,90560.374,87092.494,87171.1000000001,87105.832,90573.712,
空白時間1 (0.5秒),canvas.Screen,9_7_0,2023-01-09T08:25:28.449Z,,,d,,,135,493.50599999999395,timeout,eR.jpg,,,91131.79999999981,91053.88,90560.374,90639.19999999972,90573.712,91067.218,
注視(1秒),canvas.Screen,9_7_1,2023-01-09T08:25:29.450Z,,,d,,,135,1000.3500000000058,timeout,eR.jpg,,,92132.6000000001,92054.23,91053.88,91132.19999999972,91067.218,92067.568,
空白時間2 (0.5秒),canvas.Screen,9_7_2,2023-01-09T08:25:29.943Z,,,d,,,135,493.50599999999395,timeout,eR.jpg,,,92626.19999999972,92547.736,92054.23,92132.8999999999,92067.568,92561.074,
刺激提示,canvas.Screen,9_7_3,2023-01-09T08:25:31.024Z,,,d,true,d,135,1140.1259999997274,response,eR.jpg,d,keypress(j),93707,93701.19999999972,92547.736,92626.5,92561.074,93654.79,
フィードバック(0.5秒),canvas.Screen,9_7_4,2023-01-09T08:25:31.531Z,,,d,,,135,493.5060000000085,timeout,eR.jpg,,,94213.6000000001,94134.958,93641.452,93723.19999999972,93654.79,94148.296,
トライアル,flow.Sequence,9_7,2023-01-09T08:25:31.531Z,,,d,,,135,3561.245999999999,completion,eR.jpg,,,94214,94134.958,90560.374,90639.1000000001,90573.712,94148.296,
空白時間1 (0.5秒),canvas.Screen,9_8_0,2023-01-09T08:25:32.024Z,,,d,,,45,493.50599999999395,timeout,eR.jpg,,,94706.79999999981,94628.464,94134.958,94214.19999999972,94148.296,94641.802,
注視(1秒),canvas.Screen,9_8_1,2023-01-09T08:25:33.024Z,,,d,,,45,1000.3500000000058,timeout,eR.jpg,,,95707.29999999981,95628.814,94628.464,94707.19999999972,94641.802,95642.152,
空白時間2 (0.5秒),canvas.Screen,9_8_2,2023-01-09T08:25:33.518Z,,,d,,,45,493.8110000000015,timeout,eR.jpg,,,96200.79999999981,96122.625,95628.814,95707.79999999981,95642.152,96135.963,
刺激提示,canvas.Screen,9_8_3,2023-01-09T08:25:34.309Z,,,d,true,d,45,849.0369999999966,response,eR.jpg,d,keypress(j),96991.5,96985,96122.625,96201.1000000001,96135.963,96922.905,
フィードバック(0.5秒),canvas.Screen,9_8_4,2023-01-09T08:25:34.798Z,,,d,,,45,493.50599999999395,timeout,eR.jpg,,,97481.19999999972,97403.073,96909.567,96993.29999999981,96922.905,97416.411,
トライアル,flow.Sequence,9_8,2023-01-09T08:25:34.799Z,,,d,,,45,3254.777000000002,completion,eR.jpg,,,97481.6000000001,97403.073,94134.958,94214.1000000001,94148.296,97416.411,
空白時間1 (0.5秒),canvas.Screen,9_9_0,2023-01-09T08:25:35.292Z,,,b,,,135,493.5060000000085,timeout,e.jpg,,,97974.79999999981,97896.579,97403.073,97481.6000000001,97416.411,97909.917,
注視(1秒),canvas.Screen,9_9_1,2023-01-09T08:25:36.292Z,,,b,,,135,1000.3500000000058,timeout,e.jpg,,,98975,98896.929,97896.579,97975.29999999981,97909.917,98910.267,
空白時間2 (0.5秒),canvas.Screen,9_9_2,2023-01-09T08:25:36.786Z,,,b,,,135,493.50599999999395,timeout,e.jpg,,,99468.69999999972,99390.435,98896.929,98975.3999999999,98910.267,99403.773,
刺激提示,canvas.Screen,9_9_3,2023-01-09T08:25:37.696Z,,,b,true,b,135,969.3270000000921,response,e.jpg,b,keypress(f),100379.5,100373.1000000001,99390.435,99469.19999999972,99403.773,100324.095,
フィードバック(0.5秒),canvas.Screen,9_9_4,2023-01-09T08:25:38.199Z,,,b,,,135,493.50599999999395,timeout,e.jpg,,,100882.29999999981,100804.263,100310.757,100396.5,100324.095,100817.601,
トライアル,flow.Sequence,9_9,2023-01-09T08:25:38.200Z,,,b,,,135,3387.8520000000135,completion,e.jpg,,,100882.79999999981,100804.263,97403.073,97481.6000000001,97416.411,100817.601,
空白時間1 (0.5秒),canvas.Screen,9_10_0,2023-01-09T08:25:38.693Z,,,b,,,45,493.5060000000085,timeout,e.jpg,,,101375.79999999981,101297.769,100804.263,100883.1000000001,100817.601,101311.107,
注視(1秒),canvas.Screen,9_10_1,2023-01-09T08:25:39.694Z,,,b,,,45,1000.3499999999913,timeout,e.jpg,,,102377,102298.119,101297.769,101376.19999999972,101311.107,102311.457,
空白時間2 (0.5秒),canvas.Screen,9_10_2,2023-01-09T08:25:40.187Z,,,b,,,45,493.5060000000085,timeout,e.jpg,,,102869.69999999972,102791.625,102298.119,102377.3999999999,102311.457,102804.963,
刺激提示,canvas.Screen,9_10_3,2023-01-09T08:25:41.139Z,,,b,true,b,45,1011.4369999999035,response,e.jpg,b,keypress(f),103822.1000000001,103816.3999999999,102791.625,102870.1000000001,102804.963,103765.299,
フィードバック(0.5秒),canvas.Screen,9_10_4,2023-01-09T08:25:41.641Z,,,b,,,45,493.50599999999395,timeout,e.jpg,,,104324.19999999972,104245.467,103751.961,103836.69999999972,103765.299,104258.805,
トライアル,flow.Sequence,9_10,2023-01-09T08:25:41.642Z,,,b,,,45,3427.866000000009,completion,e.jpg,,,104324.6000000001,104245.467,100804.263,100882.8999999999,100817.601,104258.805,
空白時間1 (0.5秒),canvas.Screen,9_11_0,2023-01-09T08:25:42.134Z,,,b,,,270,493.5060000000085,timeout,e.jpg,,,104817.3999999999,104738.973,104245.467,104324.79999999981,104258.805,104752.311,
注視(1秒),canvas.Screen,9_11_1,2023-01-09T08:25:43.134Z,,,b,,,270,1000.3499999999913,timeout,e.jpg,,,105817.29999999981,105739.323,104738.973,104817.79999999981,104752.311,105752.661,
空白時間2 (0.5秒),canvas.Screen,9_11_2,2023-01-09T08:25:43.629Z,,,b,,,270,493.8090000000084,timeout,e.jpg,,,106311.79999999981,106233.132,105739.323,105817.79999999981,105752.661,106246.47,
刺激提示,canvas.Screen,9_11_3,2023-01-09T08:25:45.098Z,,,b,true,b,270,1528.7299999997194,response,e.jpg,b,keypress(f),107781.1000000001,107775.19999999972,106233.132,106312.19999999972,106246.47,107726.988,
フィードバック(0.5秒),canvas.Screen,9_11_4,2023-01-09T08:25:45.602Z,,,b,,,270,493.5060000000085,timeout,e.jpg,,,108285.19999999972,108207.156,107713.65,107796.19999999972,107726.988,108220.494,
トライアル,flow.Sequence,9_11,2023-01-09T08:25:45.603Z,,,b,,,270,3948.3510000000097,completion,e.jpg,,,108285.69999999972,108207.156,104245.467,104324.69999999972,104258.805,108220.494,
空白時間1 (0.5秒),canvas.Screen,9_12_0,2023-01-09T08:25:46.096Z,,,d,,,0,493.50599999999395,timeout,eR.jpg,,,108778.8999999999,108700.662,108207.156,108285.8999999999,108220.494,108714,
注視(1秒),canvas.Screen,9_12_1,2023-01-09T08:25:47.096Z,,,d,,,0,1000.3500000000058,timeout,eR.jpg,,,109779.3999999999,109701.012,108700.662,108779.29999999981,108714,109714.35,
空白時間2 (0.5秒),canvas.Screen,9_12_2,2023-01-09T08:25:47.590Z,,,d,,,0,493.50599999999395,timeout,eR.jpg,,,110272.79999999981,110194.518,109701.012,109779.69999999972,109714.35,110207.856,
刺激提示,canvas.Screen,9_12_3,2023-01-09T08:25:48.786Z,,,d,true,d,0,1255.443999999814,response,eR.jpg,d,keypress(j),111469.5,111463.29999999981,110194.518,110273.19999999972,110207.856,111408.276,
フィードバック(0.5秒),canvas.Screen,9_12_4,2023-01-09T08:25:49.284Z,,,d,,,0,493.5060000000085,timeout,eR.jpg,,,111966.69999999972,111888.444,111394.938,111483.3999999999,111408.276,111901.782,
トライアル,flow.Sequence,9_12,2023-01-09T08:25:49.284Z,,,d,,,0,3667.949999999997,completion,eR.jpg,,,111967.19999999972,111888.444,108207.156,108285.8999999999,108220.494,111901.782,
空白時間1 (0.5秒),canvas.Screen,9_13_0,2023-01-09T08:25:49.777Z,,,d,,,315,493.50599999999395,timeout,eR.jpg,,,112460,112381.95,111888.444,111967.3999999999,111901.782,112395.288,
注視(1秒),canvas.Screen,9_13_1,2023-01-09T08:25:50.777Z,,,d,,,315,1000.3500000000058,timeout,eR.jpg,,,113460.29999999981,113382.3,112381.95,112460.29999999981,112395.288,113395.638,
空白時間2 (0.5秒),canvas.Screen,9_13_2,2023-01-09T08:25:51.271Z,,,d,,,315,493.50599999999395,timeout,eR.jpg,,,113953.8999999999,113875.806,113382.3,113460.6000000001,113395.638,113889.144,
刺激提示,canvas.Screen,9_13_3,2023-01-09T08:25:52.647Z,,,d,false,d,315,1434.956000000093,response,eR.jpg,b,keypress(f),115329.79999999981,115324.1000000001,113875.806,113954.29999999981,113889.144,115262.958,
フィードバック(0.5秒),canvas.Screen,9_13_4,2023-01-09T08:25:53.138Z,,,d,,,315,493.5060000000085,timeout,eR.jpg,,,115821,115743.126,115249.62,115332.5,115262.958,115756.464,
トライアル,flow.Sequence,9_13,2023-01-09T08:25:53.138Z,,,d,,,315,3841.3439999999973,completion,eR.jpg,,,115821.29999999981,115743.126,111888.444,111967.29999999981,111901.782,115756.464,
空白時間1 (0.5秒),canvas.Screen,9_14_0,2023-01-09T08:25:53.632Z,,,b,,,225,493.50599999999395,timeout,e.jpg,,,116314.8999999999,116236.632,115743.126,115821.6000000001,115756.464,116249.97,
注視(1秒),canvas.Screen,9_14_1,2023-01-09T08:25:54.633Z,,,b,,,225,1000.596000000005,timeout,e.jpg,,,117316,117237.228,116236.632,116315.1000000001,116249.97,117250.566,
空白時間2 (0.5秒),canvas.Screen,9_14_2,2023-01-09T08:25:55.125Z,,,b,,,225,493.50599999999395,timeout,e.jpg,,,117808.1000000001,117730.734,117237.228,117316.19999999972,117250.566,117744.072,
刺激提示,canvas.Screen,9_14_3,2023-01-09T08:25:56.191Z,,,b,true,b,225,1125.2279999998136,response,e.jpg,b,keypress(f),118874.69999999972,118869.29999999981,117730.734,117808.3999999999,117744.072,118824.45,
フィードバック(0.5秒),canvas.Screen,9_14_4,2023-01-09T08:25:56.699Z,,,b,,,225,493.5060000000085,timeout,e.jpg,,,119382.6000000001,119304.618,118811.112,118890.6000000001,118824.45,119317.956,
トライアル,flow.Sequence,9_14,2023-01-09T08:25:56.700Z,,,b,,,225,3548.153999999995,completion,e.jpg,,,119383.1000000001,119304.618,115743.126,115821.5,115756.464,119317.956,
空白時間1 (0.5秒),canvas.Screen,9_15_0,2023-01-09T08:25:57.193Z,,,d,,,270,493.50599999999395,timeout,eR.jpg,,,119876.29999999981,119798.124,119304.618,119383.3999999999,119317.956,119811.462,
注視(1秒),canvas.Screen,9_15_1,2023-01-09T08:25:58.194Z,,,d,,,270,1000.3500000000058,timeout,eR.jpg,,,120877.5,120798.474,119798.124,119876.69999999972,119811.462,120811.812,
空白時間2 (0.5秒),canvas.Screen,9_15_2,2023-01-09T08:25:58.687Z,,,d,,,270,493.50599999999395,timeout,eR.jpg,,,121370.29999999981,121291.98,120798.474,120877.8999999999,120811.812,121305.318,
刺激提示,canvas.Screen,9_15_3,2023-01-09T08:25:59.937Z,,,d,true,d,270,1308.8819999997213,response,eR.jpg,d,keypress(j),122620.29999999981,122614.19999999972,121291.98,121370.6000000001,121305.318,122572.428,
フィードバック(0.5秒),canvas.Screen,9_15_4,2023-01-09T08:26:00.448Z,,,d,,,270,493.50599999999395,timeout,eR.jpg,,,123131.29999999981,123052.596,122559.09,122635.6000000001,122572.428,123065.934,
トライアル,flow.Sequence,9_15,2023-01-09T08:26:00.448Z,,,d,,,270,3734.6399999999994,completion,eR.jpg,,,123131.69999999972,123052.596,119304.618,119383.29999999981,119317.956,123065.934,
タスクのセット,flow.Loop,9,2023-01-09T08:26:00.449Z,,,,,,,57354.86600000001,completion,,,,123132,123052.596,65684.392,65762.79999999981,65697.73,123065.934,
空白時間1 (0.5秒),canvas.Screen,10_0_0,2023-01-09T08:26:00.941Z,,,b,,,0,493.5060000000085,timeout,e.jpg,,,123624.1000000001,123546.102,123052.596,123132.19999999972,123065.934,123559.44,
注視(1秒),canvas.Screen,10_0_1,2023-01-09T08:26:01.941Z,,,b,,,0,1000.3499999999913,timeout,e.jpg,,,124624.29999999981,124546.452,123546.102,123624.3999999999,123559.44,124559.79,
空白時間2 (0.5秒),canvas.Screen,10_0_2,2023-01-09T08:26:02.435Z,,,b,,,0,493.5060000000085,timeout,e.jpg,,,125117.8999999999,125039.958,124546.452,124624.69999999972,124559.79,125053.296,
刺激提示,canvas.Screen,10_0_3,2023-01-09T08:26:03.324Z,,,b,true,b,0,947.9039999997185,response,e.jpg,b,keypress(f),126007,126001.19999999972,125039.958,125118.1000000001,125053.296,125960.28,
フィードバック(0.5秒),canvas.Screen,10_0_4,2023-01-09T08:26:03.835Z,,,b,,,0,493.50599999999395,timeout,e.jpg,,,126518.79999999981,126440.448,125946.942,126023.3999999999,125960.28,126453.786,
トライアル,flow.Sequence,10_0,2023-01-09T08:26:03.836Z,,,b,,,0,3374.51400000001,completion,e.jpg,,,126519.19999999972,126440.448,123052.596,123132.19999999972,123065.934,126453.786,
空白時間1 (0.5秒),canvas.Screen,10_1_0,2023-01-09T08:26:04.329Z,,,d,,,45,493.7930000000051,timeout,eR.jpg,,,127012.29999999981,126934.241,126440.448,126519.3999999999,126453.786,126947.579,
注視(1秒),canvas.Screen,10_1_1,2023-01-09T08:26:05.329Z,,,d,,,45,1000.3500000000058,timeout,eR.jpg,,,128012.6000000001,127934.591,126934.241,127012.69999999972,126947.579,127947.929,
空白時間2 (0.5秒),canvas.Screen,10_1_2,2023-01-09T08:26:05.823Z,,,d,,,45,493.50599999999395,timeout,eR.jpg,,,128506,128428.097,127934.591,128012.79999999981,127947.929,128441.435,
刺激提示,canvas.Screen,10_1_3,2023-01-09T08:26:06.694Z,,,d,true,d,45,929.2649999997229,response,eR.jpg,d,keypress(j),129377,129370.69999999972,128428.097,128506.3999999999,128441.435,129308.405,
フィードバック(0.5秒),canvas.Screen,10_1_4,2023-01-09T08:26:07.184Z,,,d,,,45,493.50599999999395,timeout,eR.jpg,,,129867.1000000001,129788.573,129295.067,129378.6000000001,129308.405,129801.911,
トライアル,flow.Sequence,10_1,2023-01-09T08:26:07.184Z,,,d,,,45,3334.787000000011,completion,eR.jpg,,,129867.5,129788.573,126440.448,126519.29999999981,126453.786,129801.911,
空白時間1 (0.5秒),canvas.Screen,10_2_0,2023-01-09T08:26:07.677Z,,,d,,,0,493.5060000000085,timeout,eR.jpg,,,130359.8999999999,130282.079,129788.573,129867.69999999972,129801.911,130295.417,
注視(1秒),canvas.Screen,10_2_1,2023-01-09T08:26:08.677Z,,,d,,,0,1000.3499999999913,timeout,eR.jpg,,,131360.1000000001,131282.429,130282.079,130360.19999999972,130295.417,131295.767,
空白時間2 (0.5秒),canvas.Screen,10_2_2,2023-01-09T08:26:09.171Z,,,d,,,0,493.50599999999395,timeout,eR.jpg,,,131854.19999999972,131775.935,131282.429,131360.3999999999,131295.767,131789.273,
刺激提示,canvas.Screen,10_2_3,2023-01-09T08:26:10.035Z,,,d,true,d,0,923.0269999998272,response,eR.jpg,d,keypress(j),132718.6000000001,132712.2999999998,131775.935,131854.5,131789.273,132669.581,
フィードバック(0.5秒),canvas.Screen,10_2_4,2023-01-09T08:26:10.545Z,,,d,,,0,493.50599999999395,timeout,eR.jpg,,,133228.1000000001,133149.749,132656.243,132734,132669.581,133163.087,
トライアル,flow.Sequence,10_2,2023-01-09T08:26:10.545Z,,,d,,,0,3347.838000000018,completion,eR.jpg,,,133228.5,133149.749,129788.573,129867.69999999972,129801.911,133163.087,
空白時間1 (0.5秒),canvas.Screen,10_3_0,2023-01-09T08:26:11.038Z,,,d,,,270,493.50599999999395,timeout,eR.jpg,,,133721.5,133643.255,133149.749,133228.69999999972,133163.087,133656.593,
注視(1秒),canvas.Screen,10_3_1,2023-01-09T08:26:12.038Z,,,d,,,270,1000.3500000000058,timeout,eR.jpg,,,134721.2999999998,134643.605,133643.255,133721.7999999998,133656.593,134656.943,
空白時間2 (0.5秒),canvas.Screen,10_3_2,2023-01-09T08:26:12.532Z,,,d,,,270,493.50599999999395,timeout,eR.jpg,,,135215,135137.111,134643.605,134721.6000000001,134656.943,135150.449,
刺激提示,canvas.Screen,10_3_3,2023-01-09T08:26:14.055Z,,,d,false,d,270,1582.6510000000999,response,eR.jpg,b,keypress(f),136738.69999999972,136733.1000000001,135137.111,135215.2999999998,135150.449,136684.319,
フィードバック(0.5秒),canvas.Screen,10_3_4,2023-01-09T08:26:14.560Z,,,d,,,270,493.9010000000126,timeout,eR.jpg,,,137243.69999999972,137164.882,136670.981,136757.2999999998,136684.319,137178.22,
トライアル,flow.Sequence,10_3,2023-01-09T08:26:14.561Z,,,d,,,270,4001.795000000013,completion,eR.jpg,,,137244.19999999972,137164.882,133149.749,133228.69999999972,133163.087,137178.22,
空白時間1 (0.5秒),canvas.Screen,10_4_0,2023-01-09T08:26:15.054Z,,,d,,,90,493.50599999999395,timeout,eR.jpg,,,137737.1000000001,137658.388,137164.882,137244.5,137178.22,137671.726,
注視(1秒),canvas.Screen,10_4_1,2023-01-09T08:26:16.052Z,,,d,,,90,1000.3500000000058,timeout,eR.jpg,,,138735.8999999999,138658.738,137658.388,137737.2999999998,137671.726,138672.076,
空白時間2 (0.5秒),canvas.Screen,10_4_2,2023-01-09T08:26:16.547Z,,,d,,,90,493.50599999999395,timeout,eR.jpg,,,139230.6000000001,139152.244,138658.738,138736,138672.076,139165.582,
刺激提示,canvas.Screen,10_4_3,2023-01-09T08:26:17.397Z,,,d,false,d,90,910.7179999998189,response,eR.jpg,b,keypress(f),140080.8999999999,140076.2999999998,139152.244,139230.8999999999,139165.582,140032.552,
フィードバック(0.5秒),canvas.Screen,10_4_4,2023-01-09T08:26:17.907Z,,,d,,,90,493.50599999999395,timeout,eR.jpg,,,140590.8999999999,140512.72,140019.214,140095.69999999972,140032.552,140526.058,
トライアル,flow.Sequence,10_4,2023-01-09T08:26:17.908Z,,,d,,,90,3334.5,completion,eR.jpg,,,140591.2999999998,140512.72,137164.882,137244.3999999999,137178.22,140526.058,
空白時間1 (0.5秒),canvas.Screen,10_5_0,2023-01-09T08:26:18.401Z,,,b,,,180,493.50600000002305,timeout,e.jpg,,,141084.19999999972,141006.226,140512.72,140591.5,140526.058,141019.564,
注視(1秒),canvas.Screen,10_5_1,2023-01-09T08:26:19.402Z,,,b,,,180,1000.3499999999767,timeout,e.jpg,,,142085.1000000001,142006.576,141006.226,141084.3999999999,141019.564,142019.914,
空白時間2 (0.5秒),canvas.Screen,10_5_2,2023-01-09T08:26:19.895Z,,,b,,,180,493.50600000002305,timeout,e.jpg,,,142578.7999999998,142500.082,142006.576,142085.3999999999,142019.914,142513.42,
刺激提示,canvas.Screen,10_5_3,2023-01-09T08:26:20.862Z,,,b,false,b,180,1026.0799999999872,response,e.jpg,d,keypress(j),143545.7999999998,143539.5,142500.082,142579.19999999972,142513.42,143487.094,
フィードバック(0.5秒),canvas.Screen,10_5_4,2023-01-09T08:26:21.362Z,,,b,,,180,493.50599999999395,timeout,e.jpg,,,144045.2999999998,143967.262,143473.756,143560.5,143487.094,143980.6,
トライアル,flow.Sequence,10_5,2023-01-09T08:26:21.362Z,,,b,,,180,3441.203999999998,completion,e.jpg,,,144045.7999999998,143967.262,140512.72,140591.3999999999,140526.058,143980.6,
空白時間1 (0.5秒),canvas.Screen,10_6_0,2023-01-09T08:26:21.855Z,,,d,,,135,493.50599999999395,timeout,eR.jpg,,,144538.8999999999,144460.768,143967.262,144045.8999999999,143980.6,144474.106,
注視(1秒),canvas.Screen,10_6_1,2023-01-09T08:26:22.855Z,,,d,,,135,1000.3500000000058,timeout,eR.jpg,,,145539,145461.118,144460.768,144539.19999999972,144474.106,145474.456,
空白時間2 (0.5秒),canvas.Screen,10_6_2,2023-01-09T08:26:23.349Z,,,d,,,135,493.50599999999395,timeout,eR.jpg,,,146032.2999999998,145954.624,145461.118,145539.3999999999,145474.456,145967.962,
刺激提示,canvas.Screen,10_6_3,2023-01-09T08:26:24.313Z,,,d,true,d,135,1023.2379999997211,response,eR.jpg,d,keypress(j),146996.3999999999,146991.19999999972,145954.624,146032.6000000001,145967.962,146941.636,
フィードバック(0.5秒),canvas.Screen,10_6_4,2023-01-09T08:26:24.817Z,,,d,,,135,493.81400000001304,timeout,eR.jpg,,,147500.19999999972,147422.112,146928.298,147014.6000000001,146941.636,147435.45,
トライアル,flow.Sequence,10_6,2023-01-09T08:26:24.817Z,,,d,,,135,3441.511999999988,completion,eR.jpg,,,147500.6000000001,147422.112,143967.262,144045.8999999999,143980.6,147435.45,
空白時間1 (0.5秒),canvas.Screen,10_7_0,2023-01-09T08:26:25.310Z,,,b,,,90,493.50599999999395,timeout,e.jpg,,,147993.6000000001,147915.618,147422.112,147500.7999999998,147435.45,147928.956,
注視(1秒),canvas.Screen,10_7_1,2023-01-09T08:26:26.311Z,,,b,,,90,1000.3500000000058,timeout,e.jpg,,,148994.19999999972,148915.968,147915.618,147993.8999999999,147928.956,148929.306,
空白時間2 (0.5秒),canvas.Screen,10_7_2,2023-01-09T08:26:26.805Z,,,b,,,90,493.50599999999395,timeout,e.jpg,,,149488.2999999998,149409.474,148915.968,148994.6000000001,148929.306,149422.812,
刺激提示,canvas.Screen,10_7_3,2023-01-09T08:26:27.654Z,,,b,true,b,90,909.1879999999946,response,e.jpg,b,keypress(f),150337.5,150332,149409.474,149488.6000000001,149422.812,150289.782,
フィードバック(0.5秒),canvas.Screen,10_7_4,2023-01-09T08:26:28.165Z,,,b,,,90,493.50599999999395,timeout,e.jpg,,,150848.5,150769.95,150276.444,150356.7999999998,150289.782,150783.288,
トライアル,flow.Sequence,10_7,2023-01-09T08:26:28.165Z,,,b,,,90,3334.5,completion,e.jpg,,,150849,150769.95,147422.112,147500.7999999998,147435.45,150783.288,
空白時間1 (0.5秒),canvas.Screen,10_8_0,2023-01-09T08:26:28.659Z,,,b,,,135,493.50599999999395,timeout,e.jpg,,,151342.19999999972,151263.456,150769.95,150849.19999999972,150783.288,151276.794,
注視(1秒),canvas.Screen,10_8_1,2023-01-09T08:26:29.659Z,,,b,,,135,1000.3500000000058,timeout,e.jpg,,,152342.3999999999,152263.806,151263.456,151342.5,151276.794,152277.144,
空白時間2 (0.5秒),canvas.Screen,10_8_2,2023-01-09T08:26:30.152Z,,,b,,,135,493.50599999999395,timeout,e.jpg,,,152835.69999999972,152757.312,152263.806,152342.69999999972,152277.144,152770.65,
刺激提示,canvas.Screen,10_8_3,2023-01-09T08:26:30.750Z,,,b,true,b,135,657.2499999999127,response,e.jpg,b,keypress(f),153433.7999999998,153427.8999999999,152757.312,152836,152770.65,153370.86,
フィードバック(0.5秒),canvas.Screen,10_8_4,2023-01-09T08:26:31.245Z,,,b,,,135,493.50600000002305,timeout,e.jpg,,,153929.1000000001,153851.028,153357.522,153436.19999999972,153370.86,153864.366,
トライアル,flow.Sequence,10_8,2023-01-09T08:26:31.246Z,,,b,,,135,3067.7399999999907,completion,e.jpg,,,153929.3999999999,153851.028,150769.95,150849.1000000001,150783.288,153864.366,
空白時間1 (0.5秒),canvas.Screen,10_9_0,2023-01-09T08:26:31.739Z,,,b,,,225,493.50599999999395,timeout,e.jpg,,,154423.1000000001,154344.534,153851.028,153929.5,153864.366,154357.872,
注視(1秒),canvas.Screen,10_9_1,2023-01-09T08:26:32.740Z,,,b,,,225,1000.3500000000058,timeout,e.jpg,,,155423.7999999998,155344.884,154344.534,154423.3999999999,154357.872,155358.222,
空白時間2 (0.5秒),canvas.Screen,10_9_2,2023-01-09T08:26:33.234Z,,,b,,,225,493.50599999999395,timeout,e.jpg,,,155917.3999999999,155838.39,155344.884,155424.1000000001,155358.222,155851.728,
刺激提示,canvas.Screen,10_9_3,2023-01-09T08:26:33.884Z,,,b,true,b,225,709.4719999997178,response,e.jpg,b,keypress(f),156567.3999999999,156561.19999999972,155838.39,155917.6000000001,155851.728,156518.628,
フィードバック(0.5秒),canvas.Screen,10_9_4,2023-01-09T08:26:34.393Z,,,b,,,225,493.50599999999395,timeout,e.jpg,,,157077,156998.796,156505.29,156583.3999999999,156518.628,157012.134,
トライアル,flow.Sequence,10_9,2023-01-09T08:26:34.394Z,,,b,,,225,3134.429999999993,completion,e.jpg,,,157077.3999999999,156998.796,153851.028,153929.5,153864.366,157012.134,
空白時間1 (0.5秒),canvas.Screen,10_10_0,2023-01-09T08:26:34.887Z,,,d,,,315,493.81400000001304,timeout,eR.jpg,,,157570.5,157492.61,156998.796,157077.69999999972,157012.134,157505.948,
注視(1秒),canvas.Screen,10_10_1,2023-01-09T08:26:35.887Z,,,d,,,315,1000.3500000000058,timeout,eR.jpg,,,158570.69999999972,158492.96,157492.61,157570.8999999999,157505.948,158506.298,
空白時間2 (0.5秒),canvas.Screen,10_10_2,2023-01-09T08:26:36.381Z,,,d,,,315,493.50599999999395,timeout,eR.jpg,,,159065,158986.466,158492.96,158571,158506.298,158999.804,
刺激提示,canvas.Screen,10_10_3,2023-01-09T08:26:37.161Z,,,d,true,d,315,839.99599999981,response,eR.jpg,d,keypress(j),159845.2999999998,159839.7999999998,158986.466,159065.3999999999,158999.804,159786.746,
フィードバック(0.5秒),canvas.Screen,10_10_4,2023-01-09T08:26:37.661Z,,,d,,,315,493.50599999999395,timeout,eR.jpg,,,160344.8999999999,160266.914,159773.408,159860.69999999972,159786.746,160280.252,
トライアル,flow.Sequence,10_10,2023-01-09T08:26:37.662Z,,,d,,,315,3254.779999999999,completion,eR.jpg,,,160345.3999999999,160266.914,156998.796,157077.6000000001,157012.134,160280.252,
空白時間1 (0.5秒),canvas.Screen,10_11_0,2023-01-09T08:26:38.154Z,,,d,,,180,493.50599999999395,timeout,eR.jpg,,,160837.69999999972,160760.42,160266.914,160345.6000000001,160280.252,160773.758,
注視(1秒),canvas.Screen,10_11_1,2023-01-09T08:26:39.155Z,,,d,,,180,1000.3500000000058,timeout,eR.jpg,,,161838.69999999972,161760.77,160760.42,160838.1000000001,160773.758,161774.108,
空白時間2 (0.5秒),canvas.Screen,10_11_2,2023-01-09T08:26:39.648Z,,,d,,,180,493.50599999999395,timeout,eR.jpg,,,162332.2999999998,162254.276,161760.77,161839,161774.108,162267.614,
刺激提示,canvas.Screen,10_11_3,2023-01-09T08:26:40.985Z,,,d,true,d,180,1398.3859999999986,response,eR.jpg,d,keypress(j),163669.19999999972,163666,162254.276,162332.5,162267.614,163614.752,
フィードバック(0.5秒),canvas.Screen,10_11_4,2023-01-09T08:26:41.489Z,,,d,,,180,493.50599999999395,timeout,eR.jpg,,,164173.2999999998,164094.92,163601.414,163685.1000000001,163614.752,164108.258,
トライアル,flow.Sequence,10_11,2023-01-09T08:26:41.490Z,,,d,,,180,3814.668000000005,completion,eR.jpg,,,164173.8999999999,164094.92,160266.914,160345.6000000001,160280.252,164108.258,
空白時間1 (0.5秒),canvas.Screen,10_12_0,2023-01-09T08:26:41.982Z,,,b,,,45,493.50599999999395,timeout,e.jpg,,,164666.2999999998,164588.426,164094.92,164174.1000000001,164108.258,164601.764,
注視(1秒),canvas.Screen,10_12_1,2023-01-09T08:26:42.983Z,,,b,,,45,1000.3500000000058,timeout,e.jpg,,,165666.69999999972,165588.776,164588.426,164666.6000000001,164601.764,165602.114,
空白時間2 (0.5秒),canvas.Screen,10_12_2,2023-01-09T08:26:43.477Z,,,b,,,45,493.50599999999395,timeout,e.jpg,,,166160.3999999999,166082.282,165588.776,165667,165602.114,166095.62,
刺激提示,canvas.Screen,10_12_3,2023-01-09T08:26:44.370Z,,,b,true,b,45,952.1799999998184,response,e.jpg,b,keypress(f),167053.69999999972,167047.7999999998,166082.282,166160.69999999972,166095.62,167002.604,
フィードバック(0.5秒),canvas.Screen,10_12_4,2023-01-09T08:26:44.877Z,,,b,,,45,493.50599999999395,timeout,e.jpg,,,167561.2999999998,167482.772,166989.266,167071.69999999972,167002.604,167496.11,
トライアル,flow.Sequence,10_12,2023-01-09T08:26:44.878Z,,,b,,,45,3374.5139999999956,completion,e.jpg,,,167561.69999999972,167482.772,164094.92,164174,164108.258,167496.11,
空白時間1 (0.5秒),canvas.Screen,10_13_0,2023-01-09T08:26:45.371Z,,,d,,,225,493.7530000000261,timeout,eR.jpg,,,168055.2999999998,167976.525,167482.772,167561.8999999999,167496.11,167989.863,
注視(1秒),canvas.Screen,10_13_1,2023-01-09T08:26:46.371Z,,,d,,,225,1000.3499999999767,timeout,eR.jpg,,,169054.8999999999,168976.875,167976.525,168055.69999999972,167989.863,168990.213,
空白時間2 (0.5秒),canvas.Screen,10_13_2,2023-01-09T08:26:46.865Z,,,d,,,225,493.50600000002305,timeout,eR.jpg,,,169549,169470.381,168976.875,169055.1000000001,168990.213,169483.719,
刺激提示,canvas.Screen,10_13_3,2023-01-09T08:26:47.516Z,,,d,false,d,225,710.8810000000813,response,eR.jpg,b,keypress(f),170200.19999999972,170194.6000000001,169470.381,169549.2999999998,169483.719,170150.619,
フィードバック(0.5秒),canvas.Screen,10_13_4,2023-01-09T08:26:48.025Z,,,d,,,225,493.50599999999395,timeout,eR.jpg,,,170708.69999999972,170630.787,170137.281,170215.19999999972,170150.619,170644.125,
トライアル,flow.Sequence,10_13,2023-01-09T08:26:48.025Z,,,d,,,225,3134.677000000025,completion,eR.jpg,,,170709.1000000001,170630.787,167482.772,167561.7999999998,167496.11,170644.125,
空白時間1 (0.5秒),canvas.Screen,10_14_0,2023-01-09T08:26:48.518Z,,,b,,,315,493.50599999999395,timeout,e.jpg,,,171202.1000000001,171124.293,170630.787,170709.2999999998,170644.125,171137.631,
注視(1秒),canvas.Screen,10_14_1,2023-01-09T08:26:49.518Z,,,b,,,315,1000.3500000000058,timeout,e.jpg,,,172202.3999999999,172124.643,171124.293,171202.3999999999,171137.631,172137.981,
空白時間2 (0.5秒),canvas.Screen,10_14_2,2023-01-09T08:26:50.012Z,,,b,,,315,493.50599999999395,timeout,e.jpg,,,172696.1000000001,172618.149,172124.643,172202.6000000001,172137.981,172631.487,
刺激提示,canvas.Screen,10_14_3,2023-01-09T08:26:50.840Z,,,b,false,b,315,886.9129999999132,response,e.jpg,d,keypress(j),173524,173518.3999999999,172618.149,172696.3999999999,172631.487,173471.781,
フィードバック(0.5秒),canvas.Screen,10_14_4,2023-01-09T08:26:51.346Z,,,b,,,315,493.50600000002305,timeout,e.jpg,,,174030.5,173951.949,173458.443,173539.7999999998,173471.781,173965.287,
トライアル,flow.Sequence,10_14,2023-01-09T08:26:51.347Z,,,b,,,315,3307.8239999999932,completion,e.jpg,,,174030.8999999999,173951.949,170630.787,170709.2999999998,170644.125,173965.287,
空白時間1 (0.5秒),canvas.Screen,10_15_0,2023-01-09T08:26:51.839Z,,,b,,,270,493.50599999999395,timeout,e.jpg,,,174522.8999999999,174445.455,173951.949,174031.1000000001,173965.287,174458.793,
注視(1秒),canvas.Screen,10_15_1,2023-01-09T08:26:52.839Z,,,b,,,270,1000.3500000000058,timeout,e.jpg,,,175522.7999999998,175445.805,174445.455,174523.19999999972,174458.793,175459.143,
空白時間2 (0.5秒),canvas.Screen,10_15_2,2023-01-09T08:26:53.334Z,,,b,,,270,493.50599999999395,timeout,e.jpg,,,176017.6000000001,175939.311,175445.805,175523.1000000001,175459.143,175952.649,
刺激提示,canvas.Screen,10_15_3,2023-01-09T08:26:53.799Z,,,b,false,b,270,527.1509999998088,response,e.jpg,d,keypress(j),176483.6000000001,176479.7999999998,175939.311,176017.8999999999,175952.649,176419.479,
フィードバック(0.5秒),canvas.Screen,10_15_4,2023-01-09T08:26:54.294Z,,,b,,,270,493.50599999999395,timeout,e.jpg,,,176977.69999999972,176899.647,176406.141,176484.3999999999,176419.479,176912.985,
トライアル,flow.Sequence,10_15,2023-01-09T08:26:54.294Z,,,b,,,270,2934.359999999986,completion,e.jpg,,,176978.19999999972,176899.647,173951.949,174031,173965.287,176912.985,
タスクのセット,flow.Loop,10,2023-01-09T08:26:54.294Z,,,,,,,53833.713,completion,,,,176978.5,176899.647,123052.596,123132.1000000001,123065.934,176912.985,
空白時間1 (0.5秒),canvas.Screen,11_0_0,2023-01-09T08:26:54.788Z,,,b,,,270,493.50600000002305,timeout,e.jpg,,,177471.8999999999,177393.153,176899.647,176978.69999999972,176912.985,177406.491,
注視(1秒),canvas.Screen,11_0_1,2023-01-09T08:26:55.786Z,,,b,,,270,1000.3499999999767,timeout,e.jpg,,,178470.6000000001,178393.503,177393.153,177472.2999999998,177406.491,178406.841,
空白時間2 (0.5秒),canvas.Screen,11_0_2,2023-01-09T08:26:56.281Z,,,b,,,270,493.8070000000007,timeout,e.jpg,,,178965.19999999972,178887.31,178393.503,178470.7999999998,178406.841,178900.648,
刺激提示,canvas.Screen,11_0_3,2023-01-09T08:26:56.688Z,,,b,true,b,270,466.15199999982724,response,e.jpg,b,keypress(f),179372.6000000001,179366.7999999998,178887.31,178965.6000000001,178900.648,179300.788,
フィードバック(0.5秒),canvas.Screen,11_0_4,2023-01-09T08:26:57.175Z,,,b,,,270,493.50599999999395,timeout,e.jpg,,,179859,179780.956,179287.45,179374.69999999972,179300.788,179794.294,
トライアル,flow.Sequence,11_0,2023-01-09T08:26:57.175Z,,,b,,,270,2867.9710000000196,completion,e.jpg,,,179859.5,179780.956,176899.647,176978.69999999972,176912.985,179794.294,
空白時間1 (0.5秒),canvas.Screen,11_1_0,2023-01-09T08:26:57.668Z,,,d,,,315,493.50599999999395,timeout,eR.jpg,,,180352.6000000001,180274.462,179780.956,179859.6000000001,179794.294,180287.8,
注視(1秒),canvas.Screen,11_1_1,2023-01-09T08:26:58.669Z,,,d,,,315,1000.3500000000058,timeout,eR.jpg,,,181353.1000000001,181274.812,180274.462,180352.8999999999,180287.8,181288.15,
空白時間2 (0.5秒),canvas.Screen,11_1_2,2023-01-09T08:26:59.162Z,,,d,,,315,493.50599999999395,timeout,eR.jpg,,,181846.2999999998,181768.318,181274.812,181353.2999999998,181288.15,181781.656,
刺激提示,canvas.Screen,11_1_3,2023-01-09T08:27:00.057Z,,,d,true,d,315,953.1439999998256,response,eR.jpg,d,keypress(j),182740.7999999998,182734.7999999998,181768.318,181846.5,181781.656,182688.64,
フィードバック(0.5秒),canvas.Screen,11_1_4,2023-01-09T08:27:00.563Z,,,d,,,315,493.50599999999395,timeout,eR.jpg,,,183247.5,183168.808,182675.302,182756.6000000001,182688.64,183182.146,
トライアル,flow.Sequence,11_1,2023-01-09T08:27:00.564Z,,,d,,,315,3374.5139999999956,completion,eR.jpg,,,183247.8999999999,183168.808,179780.956,179859.6000000001,179794.294,183182.146,
空白時間1 (0.5秒),canvas.Screen,11_2_0,2023-01-09T08:27:01.056Z,,,d,,,180,493.50599999999395,timeout,eR.jpg,,,183740.3999999999,183662.314,183168.808,183248.19999999972,183182.146,183675.652,
注視(1秒),canvas.Screen,11_2_1,2023-01-09T08:27:02.057Z,,,d,,,180,1000.3500000000058,timeout,eR.jpg,,,184741.3999999999,184662.664,183662.314,183740.69999999972,183675.652,184676.002,
空白時間2 (0.5秒),canvas.Screen,11_2_2,2023-01-09T08:27:02.551Z,,,d,,,180,493.50599999999395,timeout,eR.jpg,,,185234.7999999998,185156.17,184662.664,184741.69999999972,184676.002,185169.508,
刺激提示,canvas.Screen,11_2_3,2023-01-09T08:27:03.628Z,,,d,false,d,180,1137.0920000000915,response,eR.jpg,b,keypress(f),186312.1000000001,186306.6000000001,185156.17,185235.1000000001,185169.508,186263.224,
フィードバック(0.5秒),canvas.Screen,11_2_4,2023-01-09T08:27:04.138Z,,,d,,,180,493.50600000002305,timeout,eR.jpg,,,186822.2999999998,186743.392,186249.886,186328.3999999999,186263.224,186756.73,
トライアル,flow.Sequence,11_2,2023-01-09T08:27:04.138Z,,,d,,,180,3561.2459999999846,completion,eR.jpg,,,186822.69999999972,186743.392,183168.808,183248.19999999972,183182.146,186756.73,
空白時間1 (0.5秒),canvas.Screen,11_3_0,2023-01-09T08:27:04.631Z,,,d,,,0,493.50599999999395,timeout,eR.jpg,,,187315.69999999972,187236.898,186743.392,186823,186756.73,187250.236,
注視(1秒),canvas.Screen,11_3_1,2023-01-09T08:27:05.631Z,,,d,,,0,1000.3500000000058,timeout,eR.jpg,,,188315.1000000001,188237.248,187236.898,187315.8999999999,187250.236,188250.586,
空白時間2 (0.5秒),canvas.Screen,11_3_2,2023-01-09T08:27:06.124Z,,,d,,,0,493.50599999999395,timeout,eR.jpg,,,188808.6000000001,188730.754,188237.248,188315.5,188250.586,188744.092,
刺激提示,canvas.Screen,11_3_3,2023-01-09T08:27:07.364Z,,,d,true,d,0,1298.7079999998095,response,eR.jpg,d,keypress(j),190048.69999999972,190042.7999999998,188730.754,188809,188744.092,189998.267,
フィードバック(0.5秒),canvas.Screen,11_3_4,2023-01-09T08:27:07.872Z,,,d,,,0,493.50599999999395,timeout,eR.jpg,,,190556.5,190478.435,189984.929,190063.5,189998.267,190491.773,
トライアル,flow.Sequence,11_3,2023-01-09T08:27:07.873Z,,,d,,,0,3721.704999999987,completion,eR.jpg,,,190556.8999999999,190478.435,186743.392,186822.8999999999,186756.73,190491.773,
空白時間1 (0.5秒),canvas.Screen,11_4_0,2023-01-09T08:27:08.365Z,,,b,,,315,493.50600000002305,timeout,e.jpg,,,191049.7999999998,190971.941,190478.435,190557.19999999972,190491.773,190985.279,
注視(1秒),canvas.Screen,11_4_1,2023-01-09T08:27:09.367Z,,,b,,,315,1000.3499999999767,timeout,e.jpg,,,192051,191972.291,190971.941,191050.19999999972,190985.279,191985.629,
空白時間2 (0.5秒),canvas.Screen,11_4_2,2023-01-09T08:27:09.859Z,,,b,,,315,493.50600000002305,timeout,e.jpg,,,192543.7999999998,192465.797,191972.291,192051.19999999972,191985.629,192479.135,
刺激提示,canvas.Screen,11_4_3,2023-01-09T08:27:10.992Z,,,b,true,b,315,1191.8649999999907,response,e.jpg,b,keypress(f),193676.2999999998,193671,192465.797,192544.1000000001,192479.135,193626.203,
フィードバック(0.5秒),canvas.Screen,11_4_4,2023-01-09T08:27:11.500Z,,,b,,,315,493.50599999999395,timeout,e.jpg,,,194184.19999999972,194106.371,193612.865,193691.2999999998,193626.203,194119.709,
トライアル,flow.Sequence,11_4,2023-01-09T08:27:11.500Z,,,b,,,315,3614.5980000000272,completion,e.jpg,,,194184.69999999972,194106.371,190478.435,190557.1000000001,190491.773,194119.709,
空白時間1 (0.5秒),canvas.Screen,11_5_0,2023-01-09T08:27:11.993Z,,,d,,,270,493.50599999999395,timeout,eR.jpg,,,194677.6000000001,194599.877,194106.371,194184.7999999998,194119.709,194613.215,
注視(1秒),canvas.Screen,11_5_1,2023-01-09T08:27:12.994Z,,,d,,,270,1000.3500000000058,timeout,eR.jpg,,,195678.5,195600.227,194599.877,194678,194613.215,195613.565,
空白時間2 (0.5秒),canvas.Screen,11_5_2,2023-01-09T08:27:13.487Z,,,d,,,270,493.50599999999395,timeout,eR.jpg,,,196171.7999999998,196093.733,195600.227,195678.8999999999,195613.565,196107.071,
刺激提示,canvas.Screen,11_5_3,2023-01-09T08:27:14.744Z,,,d,true,d,270,1315.4290000000037,response,eR.jpg,d,keypress(j),197427.8999999999,197422.5,196093.733,196172.1000000001,196107.071,197374.181,
フィードバック(0.5秒),canvas.Screen,11_5_4,2023-01-09T08:27:15.249Z,,,d,,,270,493.50599999999395,timeout,eR.jpg,,,197933.1000000001,197854.349,197360.843,197445.19999999972,197374.181,197867.687,
トライアル,flow.Sequence,11_5,2023-01-09T08:27:15.249Z,,,d,,,270,3734.639999999985,completion,eR.jpg,,,197933.6000000001,197854.349,194106.371,194184.69999999972,194119.709,197867.687,
空白時間1 (0.5秒),canvas.Screen,11_6_0,2023-01-09T08:27:15.742Z,,,b,,,135,493.50599999999395,timeout,e.jpg,,,198426,198347.855,197854.349,197933.7999999998,197867.687,198361.193,
注視(1秒),canvas.Screen,11_6_1,2023-01-09T08:27:16.743Z,,,b,,,135,1000.3500000000058,timeout,e.jpg,,,199426.8999999999,199348.205,198347.855,198426.3999999999,198361.193,199361.543,
空白時間2 (0.5秒),canvas.Screen,11_6_2,2023-01-09T08:27:17.236Z,,,b,,,135,493.7960000000021,timeout,e.jpg,,,199920,199842.001,199348.205,199427.19999999972,199361.543,199855.339,
刺激提示,canvas.Screen,11_6_3,2023-01-09T08:27:17.996Z,,,b,true,b,135,819.0609999998996,response,e.jpg,b,keypress(f),200680.5,200674.3999999999,199842.001,199920.2999999998,199855.339,200628.943,
フィードバック(0.5秒),canvas.Screen,11_6_4,2023-01-09T08:27:18.503Z,,,b,,,135,493.50599999999395,timeout,e.jpg,,,201187,201109.111,200615.605,200697.2999999998,200628.943,201122.449,
トライアル,flow.Sequence,11_6,2023-01-09T08:27:18.503Z,,,b,,,135,3241.423999999999,completion,e.jpg,,,201187.5,201109.111,197854.349,197933.69999999972,197867.687,201122.449,
空白時間1 (0.5秒),canvas.Screen,11_7_0,2023-01-09T08:27:18.996Z,,,d,,,225,493.50599999999395,timeout,eR.jpg,,,201680.3999999999,201602.617,201109.111,201187.69999999972,201122.449,201615.955,
注視(1秒),canvas.Screen,11_7_1,2023-01-09T08:27:19.997Z,,,d,,,225,1000.3500000000058,timeout,eR.jpg,,,202681.1000000001,202602.967,201602.617,201680.69999999972,201615.955,202616.305,
空白時間2 (0.5秒),canvas.Screen,11_7_2,2023-01-09T08:27:20.491Z,,,d,,,225,493.50599999999395,timeout,eR.jpg,,,203175.1000000001,203096.473,202602.967,202681.3999999999,202616.305,203109.811,
刺激提示,canvas.Screen,11_7_3,2023-01-09T08:27:21.196Z,,,d,true,d,225,764.689000000013,response,eR.jpg,d,keypress(j),203880.19999999972,203874.5,203096.473,203175.3999999999,203109.811,203830.063,
フィードバック(0.5秒),canvas.Screen,11_7_4,2023-01-09T08:27:21.704Z,,,d,,,225,493.50599999999395,timeout,eR.jpg,,,204388.19999999972,204310.231,203816.725,203895.6000000001,203830.063,204323.569,
トライアル,flow.Sequence,11_7,2023-01-09T08:27:21.704Z,,,d,,,225,3187.7820000000065,completion,eR.jpg,,,204388.6000000001,204310.231,201109.111,201187.69999999972,201122.449,204323.569,
空白時間1 (0.5秒),canvas.Screen,11_8_0,2023-01-09T08:27:22.197Z,,,b,,,90,493.50600000002305,timeout,e.jpg,,,204881.6000000001,204803.737,204310.231,204388.7999999998,204323.569,204817.075,
注視(1秒),canvas.Screen,11_8_1,2023-01-09T08:27:23.197Z,,,b,,,90,1000.3499999999767,timeout,e.jpg,,,205881.7999999998,205804.087,204803.737,204881.7999999998,204817.075,205817.425,
空白時間2 (0.5秒),canvas.Screen,11_8_2,2023-01-09T08:27:23.691Z,,,b,,,90,493.50600000002305,timeout,e.jpg,,,206375.7999999998,206297.593,205804.087,205882.19999999972,205817.425,206310.931,
刺激提示,canvas.Screen,11_8_3,2023-01-09T08:27:24.445Z,,,b,true,b,90,813.3689999998023,response,e.jpg,b,keypress(f),207129.7999999998,207124.2999999998,206297.593,206376.1000000001,206310.931,207071.197,
フィードバック(0.5秒),canvas.Screen,11_8_4,2023-01-09T08:27:24.945Z,,,b,,,90,493.50600000002305,timeout,e.jpg,,,207629.69999999972,207551.365,207044.521,207131.6000000001,207071.197,207564.703,
トライアル,flow.Sequence,11_8,2023-01-09T08:27:24.946Z,,,b,,,90,3227.796000000002,completion,e.jpg,,,207630.19999999972,207551.365,204310.231,204388.69999999972,204323.569,207564.703,
空白時間1 (0.5秒),canvas.Screen,11_9_0,2023-01-09T08:27:25.439Z,,,d,,,45,493.50599999999395,timeout,eR.jpg,,,208123.19999999972,208044.871,207551.365,207630.5,207564.703,208058.209,
注視(1秒),canvas.Screen,11_9_1,2023-01-09T08:27:26.439Z,,,d,,,45,1000.3500000000058,timeout,eR.jpg,,,209123.8999999999,209045.221,208044.871,208123.5,208058.209,209058.559,
空白時間2 (0.5秒),canvas.Screen,11_9_2,2023-01-09T08:27:26.932Z,,,d,,,45,493.50599999999395,timeout,eR.jpg,,,209616.3999999999,209538.727,209045.221,209124.2999999998,209058.559,209552.065,
刺激提示,canvas.Screen,11_9_3,2023-01-09T08:27:27.543Z,,,d,true,d,45,670.3349999999045,response,eR.jpg,d,keypress(j),210228,210222.3999999999,209538.727,209616.8999999999,209552.065,210179.285,
フィードバック(0.5秒),canvas.Screen,11_9_4,2023-01-09T08:27:28.053Z,,,d,,,45,493.50599999999395,timeout,eR.jpg,,,210737.7999999998,210659.453,210165.947,210245.1000000001,210179.285,210672.791,
トライアル,flow.Sequence,11_9,2023-01-09T08:27:28.054Z,,,d,,,45,3094.75,completion,eR.jpg,,,210738.19999999972,210659.453,207551.365,207630.3999999999,207564.703,210672.791,
空白時間1 (0.5秒),canvas.Screen,11_10_0,2023-01-09T08:27:28.547Z,,,b,,,180,493.50599999999395,timeout,e.jpg,,,211231.69999999972,211152.959,210659.453,210738.3999999999,210672.791,211166.297,
注視(1秒),canvas.Screen,11_10_1,2023-01-09T08:27:29.547Z,,,b,,,180,1000.3500000000058,timeout,e.jpg,,,212232,212153.309,211152.959,211232,211166.297,212166.647,
空白時間2 (0.5秒),canvas.Screen,11_10_2,2023-01-09T08:27:30.040Z,,,b,,,180,493.50599999999395,timeout,e.jpg,,,212725.1000000001,212646.815,212153.309,212232.2999999998,212166.647,212660.153,
刺激提示,canvas.Screen,11_10_3,2023-01-09T08:27:30.755Z,,,b,true,b,180,773.3470000000088,response,e.jpg,b,keypress(f),213439.3999999999,213433.5,212646.815,212725.3999999999,212660.153,213380.405,
フィードバック(0.5秒),canvas.Screen,11_10_4,2023-01-09T08:27:31.254Z,,,b,,,180,493.50599999999395,timeout,e.jpg,,,213938.5,213860.573,213353.729,213440.8999999999,213380.405,213873.911,
トライアル,flow.Sequence,11_10,2023-01-09T08:27:31.254Z,,,b,,,180,3187.7820000000065,completion,e.jpg,,,213939.19999999972,213860.573,210659.453,210738.2999999998,210672.791,213873.911,
空白時間1 (0.5秒),canvas.Screen,11_11_0,2023-01-09T08:27:31.748Z,,,b,,,45,493.50599999999395,timeout,e.jpg,,,214432.3999999999,214354.079,213860.573,213939.2999999998,213873.911,214367.417,
注視(1秒),canvas.Screen,11_11_1,2023-01-09T08:27:32.748Z,,,b,,,45,1000.3500000000058,timeout,e.jpg,,,215432.2999999998,215354.429,214354.079,214433.6000000001,214367.417,215367.767,
空白時間2 (0.5秒),canvas.Screen,11_11_2,2023-01-09T08:27:33.241Z,,,b,,,45,493.50599999999395,timeout,e.jpg,,,215926,215847.935,215354.429,215432.7999999998,215367.767,215861.273,
刺激提示,canvas.Screen,11_11_3,2023-01-09T08:27:33.925Z,,,b,false,b,45,743.2270000000135,response,e.jpg,d,keypress(j),216609.7999999998,216604.5,215847.935,215926.2999999998,215861.273,216554.849,
フィードバック(0.5秒),canvas.Screen,11_11_4,2023-01-09T08:27:34.429Z,,,b,,,45,493.50600000002305,timeout,e.jpg,,,217113.5,217035.017,216541.511,216626.5,216554.849,217048.355,
トライアル,flow.Sequence,11_11,2023-01-09T08:27:34.429Z,,,b,,,45,3161.1059999999998,completion,e.jpg,,,217114,217035.017,213860.573,213939.19999999972,213873.911,217048.355,
空白時間1 (0.5秒),canvas.Screen,11_12_0,2023-01-09T08:27:34.922Z,,,d,,,135,493.50599999999395,timeout,eR.jpg,,,217606.3999999999,217528.523,217035.017,217114.19999999972,217048.355,217541.861,
注視(1秒),canvas.Screen,11_12_1,2023-01-09T08:27:35.921Z,,,d,,,135,1000.3500000000058,timeout,eR.jpg,,,218605.8999999999,218528.873,217528.523,217606.7999999998,217541.861,218542.211,
空白時間2 (0.5秒),canvas.Screen,11_12_2,2023-01-09T08:27:36.416Z,,,d,,,135,493.50599999999395,timeout,eR.jpg,,,219100.6000000001,219022.379,218528.873,218606.2999999998,218542.211,219035.717,
刺激提示,canvas.Screen,11_12_3,2023-01-09T08:27:37.279Z,,,d,true,d,135,922.5829999998095,response,eR.jpg,d,keypress(j),219963.8999999999,219958.2999999998,219022.379,219100.8999999999,219035.717,219916.025,
フィードバック(0.5秒),canvas.Screen,11_12_4,2023-01-09T08:27:37.790Z,,,d,,,135,493.81200000000536,timeout,eR.jpg,,,220474.8999999999,220396.499,219902.687,219980.19999999972,219916.025,220409.837,
トライアル,flow.Sequence,11_12,2023-01-09T08:27:37.791Z,,,d,,,135,3348.1440000000002,completion,eR.jpg,,,220475.3999999999,220396.499,217035.017,217114.19999999972,217048.355,220409.837,
空白時間1 (0.5秒),canvas.Screen,11_13_0,2023-01-09T08:27:38.283Z,,,b,,,0,493.50599999999395,timeout,e.jpg,,,220967.8999999999,220890.005,220396.499,220475.69999999972,220409.837,220903.343,
注視(1秒),canvas.Screen,11_13_1,2023-01-09T08:27:39.284Z,,,b,,,0,1000.3500000000058,timeout,e.jpg,,,221968.2999999998,221890.355,220890.005,220968.19999999972,220903.343,221903.693,
空白時間2 (0.5秒),canvas.Screen,11_13_2,2023-01-09T08:27:39.777Z,,,b,,,0,493.50599999999395,timeout,e.jpg,,,222461.69999999972,222383.861,221890.355,221968.6000000001,221903.693,222397.199,
刺激提示,canvas.Screen,11_13_3,2023-01-09T08:27:40.399Z,,,b,true,b,0,680.7009999999136,response,e.jpg,b,keypress(f),223083.2999999998,223077.8999999999,222383.861,222462,222397.199,223024.085,
フィードバック(0.5秒),canvas.Screen,11_13_4,2023-01-09T08:27:40.898Z,,,b,,,0,493.50599999999395,timeout,e.jpg,,,223582.69999999972,223504.253,222997.409,223085.1000000001,223024.085,223517.591,
トライアル,flow.Sequence,11_13,2023-01-09T08:27:40.898Z,,,b,,,0,3094.4159999999974,completion,e.jpg,,,223583.2999999998,223504.253,220396.499,220475.5,220409.837,223517.591,
空白時間1 (0.5秒),canvas.Screen,11_14_0,2023-01-09T08:27:41.391Z,,,d,,,90,493.50600000002305,timeout,eR.jpg,,,224076,223997.759,223504.253,223583.3999999999,223517.591,224011.097,
注視(1秒),canvas.Screen,11_14_1,2023-01-09T08:27:42.391Z,,,d,,,90,1000.3499999999767,timeout,eR.jpg,,,225076.19999999972,224998.109,223997.759,224076.3999999999,224011.097,225011.447,
空白時間2 (0.5秒),canvas.Screen,11_14_2,2023-01-09T08:27:42.885Z,,,d,,,90,493.50600000002305,timeout,eR.jpg,,,225569.3999999999,225491.615,224998.109,225076.5,225011.447,225504.953,
刺激提示,canvas.Screen,11_14_3,2023-01-09T08:27:43.584Z,,,d,true,d,90,757.3469999998051,response,eR.jpg,d,keypress(j),226268.3999999999,226262.2999999998,225491.615,225569.7999999998,225504.953,226211.867,
フィードバック(0.5秒),canvas.Screen,11_14_4,2023-01-09T08:27:44.085Z,,,d,,,90,493.50599999999395,timeout,eR.jpg,,,226770.1000000001,226692.035,226198.529,226284.2999999998,226211.867,226705.373,
トライアル,flow.Sequence,11_14,2023-01-09T08:27:44.086Z,,,d,,,90,3174.4440000000177,completion,eR.jpg,,,226770.5,226692.035,223504.253,223583.2999999998,223517.591,226705.373,
空白時間1 (0.5秒),canvas.Screen,11_15_0,2023-01-09T08:27:44.579Z,,,b,,,225,493.50599999999395,timeout,e.jpg,,,227263.5,227185.541,226692.035,226770.7999999998,226705.373,227198.879,
注視(1秒),canvas.Screen,11_15_1,2023-01-09T08:27:45.579Z,,,b,,,225,1000.3500000000058,timeout,e.jpg,,,228263.7999999998,228185.891,227185.541,227263.8999999999,227198.879,228199.229,
空白時間2 (0.5秒),canvas.Screen,11_15_2,2023-01-09T08:27:46.072Z,,,b,,,225,493.50599999999395,timeout,e.jpg,,,228757.2999999998,228679.397,228185.891,228264.19999999972,228199.229,228692.735,
刺激提示,canvas.Screen,11_15_3,2023-01-09T08:27:46.774Z,,,b,true,b,225,760.765000000014,response,e.jpg,b,keypress(f),229458.69999999972,229453.5,228679.397,228757.5,228692.735,229399.649,
フィードバック(0.5秒),canvas.Screen,11_15_4,2023-01-09T08:27:47.274Z,,,b,,,225,493.50599999999395,timeout,e.jpg,,,229958.3999999999,229879.817,229372.973,229460,229399.649,229893.155,
トライアル,flow.Sequence,11_15,2023-01-09T08:27:47.274Z,,,b,,,225,3174.4440000000177,completion,e.jpg,,,229958.8999999999,229879.817,226692.035,226770.69999999972,226705.373,229893.155,
タスクのセット,flow.Loop,11,2023-01-09T08:27:47.274Z,,,,,,,52966.832000000024,completion,,,,229959.19999999972,229879.817,176899.647,176978.6000000001,176912.985,229893.155,
空白時間1 (0.5秒),canvas.Screen,12_0_0,2023-01-09T08:27:47.767Z,,,b,,,0,493.50599999999395,timeout,e.jpg,,,230452.1000000001,230373.323,229879.817,229959.5,229893.155,230386.661,
注視(1秒),canvas.Screen,12_0_1,2023-01-09T08:27:48.767Z,,,b,,,0,1000.5890000000072,timeout,e.jpg,,,231451.8999999999,231373.912,230373.323,230452.3999999999,230386.661,231387.25,
空白時間2 (0.5秒),canvas.Screen,12_0_2,2023-01-09T08:27:49.261Z,,,b,,,0,493.50599999999395,timeout,e.jpg,,,231945.7999999998,231867.418,231373.912,231452.1000000001,231387.25,231880.756,
刺激提示,canvas.Screen,12_0_3,2023-01-09T08:27:49.920Z,,,b,false,b,0,718.8440000000992,response,e.jpg,d,keypress(j),232605.2999999998,232599.6000000001,231867.418,231947.2999999998,231880.756,232547.656,
フィードバック(0.5秒),canvas.Screen,12_0_4,2023-01-09T08:27:50.421Z,,,b,,,0,493.50600000002305,timeout,e.jpg,,,233105.7999999998,233027.824,232534.318,232619.7999999998,232547.656,233041.162,
トライアル,flow.Sequence,12_0,2023-01-09T08:27:50.421Z,,,b,,,0,3134.6689999999944,completion,e.jpg,,,233106.1000000001,233027.824,229879.817,229959.3999999999,229893.155,233041.162,
空白時間1 (0.5秒),canvas.Screen,12_1_0,2023-01-09T08:27:50.915Z,,,b,,,225,493.50599999999395,timeout,e.jpg,,,233600.19999999972,233521.33,233027.824,233106.2999999998,233041.162,233534.668,
注視(1秒),canvas.Screen,12_1_1,2023-01-09T08:27:51.915Z,,,b,,,225,1000.3500000000058,timeout,e.jpg,,,234600.19999999972,234521.68,233521.33,233600.5,233534.668,234535.018,
空白時間2 (0.5秒),canvas.Screen,12_1_2,2023-01-09T08:27:52.409Z,,,b,,,225,493.50599999999395,timeout,e.jpg,,,235093.6000000001,235015.186,234521.68,234600.5,234535.018,235028.524,
刺激提示,canvas.Screen,12_1_3,2023-01-09T08:27:53.327Z,,,b,false,b,225,977.875999999902,response,e.jpg,d,keypress(j),236011.7999999998,236006.3999999999,235015.186,235093.7999999998,235028.524,235962.184,
フィードバック(0.5秒),canvas.Screen,12_1_4,2023-01-09T08:27:53.835Z,,,b,,,225,493.50599999999395,timeout,e.jpg,,,236520.3999999999,236442.352,235948.846,236026.19999999972,235962.184,236455.69,
トライアル,flow.Sequence,12_1,2023-01-09T08:27:53.836Z,,,b,,,225,3401.1900000000023,completion,e.jpg,,,236520.8999999999,236442.352,233027.824,233106.19999999972,233041.162,236455.69,
空白時間1 (0.5秒),canvas.Screen,12_2_0,2023-01-09T08:27:54.330Z,,,b,,,90,493.50599999999395,timeout,e.jpg,,,237014.6000000001,236935.858,236442.352,236521.1000000001,236455.69,236949.196,
注視(1秒),canvas.Screen,12_2_1,2023-01-09T08:27:55.330Z,,,b,,,90,1000.3500000000058,timeout,e.jpg,,,238014.6000000001,237936.208,236935.858,237014.8999999999,236949.196,237949.546,
空白時間2 (0.5秒),canvas.Screen,12_2_2,2023-01-09T08:27:55.823Z,,,b,,,90,493.50599999999395,timeout,e.jpg,,,238508,238429.714,237936.208,238015,237949.546,238443.052,
刺激提示,canvas.Screen,12_2_3,2023-01-09T08:27:56.567Z,,,b,false,b,90,805.3479999999108,response,e.jpg,d,keypress(j),239251.8999999999,239248.3999999999,238429.714,238508.2999999998,238443.052,239189.98,
フィードバック(0.5秒),canvas.Screen,12_2_4,2023-01-09T08:27:57.062Z,,,b,,,90,493.50599999999395,timeout,e.jpg,,,239747.19999999972,239670.148,239176.642,239253.69999999972,239189.98,239683.486,
トライアル,flow.Sequence,12_2,2023-01-09T08:27:57.063Z,,,b,,,90,3214.457999999984,completion,e.jpg,,,239747.5,239670.148,236442.352,236521,236455.69,239683.486,
空白時間1 (0.5秒),canvas.Screen,12_3_0,2023-01-09T08:27:57.557Z,,,b,,,135,493.50599999999395,timeout,e.jpg,,,240242.5,240163.654,239670.148,239747.6000000001,239683.486,240176.992,
注視(1秒),canvas.Screen,12_3_1,2023-01-09T08:27:58.557Z,,,b,,,135,1000.3500000000058,timeout,e.jpg,,,241242.19999999972,241164.004,240163.654,240242.7999999998,240176.992,241177.342,
空白時間2 (0.5秒),canvas.Screen,12_3_2,2023-01-09T08:27:59.051Z,,,b,,,135,493.80299999998533,timeout,e.jpg,,,241736.19999999972,241657.807,241164.004,241242.5,241177.342,241671.145,
刺激提示,canvas.Screen,12_3_3,2023-01-09T08:27:59.532Z,,,b,true,b,135,542.7549999999173,response,e.jpg,b,keypress(f),242216.69999999972,242213.8999999999,241657.807,241736.6000000001,241671.145,242151.313,
フィードバック(0.5秒),canvas.Screen,12_3_4,2023-01-09T08:28:00.025Z,,,b,,,135,493.50599999999395,timeout,e.jpg,,,242710,242631.481,242137.975,242224.6000000001,242151.313,242644.819,
トライアル,flow.Sequence,12_3,2023-01-09T08:28:00.025Z,,,b,,,135,2947.9949999999953,completion,e.jpg,,,242710.3999999999,242631.481,239670.148,239747.6000000001,239683.486,242644.819,
空白時間1 (0.5秒),canvas.Screen,12_4_0,2023-01-09T08:28:00.519Z,,,d,,,270,493.50600000002305,timeout,eR.jpg,,,243203.6000000001,243124.987,242631.481,242710.69999999972,242644.819,243138.325,
注視(1秒),canvas.Screen,12_4_1,2023-01-09T08:28:01.518Z,,,d,,,270,1000.3499999999767,timeout,eR.jpg,,,244203.2999999998,244125.337,243124.987,243204,243138.325,244138.675,
空白時間2 (0.5秒),canvas.Screen,12_4_2,2023-01-09T08:28:02.012Z,,,d,,,270,493.50600000002305,timeout,eR.jpg,,,244697.2999999998,244618.843,244125.337,244203.69999999972,244138.675,244632.181,
刺激提示,canvas.Screen,12_4_3,2023-01-09T08:28:02.762Z,,,d,true,d,270,810.1189999998023,response,eR.jpg,d,keypress(j),245447.5,245442.2999999998,244618.843,244697.69999999972,244632.181,245392.447,
フィードバック(0.5秒),canvas.Screen,12_4_4,2023-01-09T08:28:03.265Z,,,d,,,270,493.50600000002305,timeout,eR.jpg,,,245950.2999999998,245872.615,245379.109,245451.1000000001,245392.447,245885.953,
トライアル,flow.Sequence,12_4,2023-01-09T08:28:03.265Z,,,d,,,270,3227.796000000002,completion,eR.jpg,,,245950.5,245872.615,242631.481,242710.6000000001,242644.819,245885.953,
空白時間1 (0.5秒),canvas.Screen,12_5_0,2023-01-09T08:28:03.759Z,,,d,,,135,493.50599999999395,timeout,eR.jpg,,,246443.8999999999,246366.121,245872.615,245950.69999999972,245885.953,246379.459,
注視(1秒),canvas.Screen,12_5_1,2023-01-09T08:28:04.759Z,,,d,,,135,1000.3500000000058,timeout,eR.jpg,,,247444.19999999972,247366.471,246366.121,246444.19999999972,246379.459,247379.809,
空白時間2 (0.5秒),canvas.Screen,12_5_2,2023-01-09T08:28:05.253Z,,,d,,,135,493.50599999999395,timeout,eR.jpg,,,247937.8999999999,247859.977,247366.471,247444.3999999999,247379.809,247873.315,
刺激提示,canvas.Screen,12_5_3,2023-01-09T08:28:06.093Z,,,d,false,d,135,899.6849999999977,response,eR.jpg,b,keypress(f),248778,248773,247859.977,247938.2999999998,247873.315,248726.947,
フィードバック(0.5秒),canvas.Screen,12_5_4,2023-01-09T08:28:06.600Z,,,d,,,135,493.50600000002305,timeout,eR.jpg,,,249284.8999999999,249207.115,248713.609,248793.7999999998,248726.947,249220.453,
トライアル,flow.Sequence,12_5,2023-01-09T08:28:06.600Z,,,d,,,135,3321.161999999982,completion,eR.jpg,,,249285.3999999999,249207.115,245872.615,245950.6000000001,245885.953,249220.453,
空白時間1 (0.5秒),canvas.Screen,12_6_0,2023-01-09T08:28:07.094Z,,,b,,,180,493.50599999999395,timeout,e.jpg,,,249778.69999999972,249700.621,249207.115,249285.6000000001,249220.453,249713.959,
注視(1秒),canvas.Screen,12_6_1,2023-01-09T08:28:08.094Z,,,b,,,180,1000.3500000000058,timeout,e.jpg,,,250779.19999999972,250700.971,249700.621,249779,249713.959,250714.309,
空白時間2 (0.5秒),canvas.Screen,12_6_2,2023-01-09T08:28:08.588Z,,,b,,,180,493.50599999999395,timeout,e.jpg,,,251272.8999999999,251194.477,250700.971,250779.5,250714.309,251207.815,
刺激提示,canvas.Screen,12_6_3,2023-01-09T08:28:09.174Z,,,b,true,b,180,645.8849999997183,response,e.jpg,b,keypress(f),251859.19999999972,251853.69999999972,251194.477,251273.2999999998,251207.815,251808.418,
フィードバック(0.5秒),canvas.Screen,12_6_4,2023-01-09T08:28:09.682Z,,,b,,,180,493.50599999999395,timeout,e.jpg,,,252366.7999999998,252288.586,251795.08,251872.69999999972,251808.418,252301.924,
トライアル,flow.Sequence,12_6,2023-01-09T08:28:09.682Z,,,b,,,180,3068.1330000000016,completion,e.jpg,,,252367.2999999998,252288.586,249207.115,249285.5,249220.453,252301.924,
空白時間1 (0.5秒),canvas.Screen,12_7_0,2023-01-09T08:28:10.175Z,,,d,,,0,493.50599999999395,timeout,eR.jpg,,,252859.8999999999,252782.092,252288.586,252367.6000000001,252301.924,252795.43,
注視(1秒),canvas.Screen,12_7_1,2023-01-09T08:28:11.175Z,,,d,,,0,1000.3500000000058,timeout,eR.jpg,,,253860.3999999999,253782.442,252782.092,252860.19999999972,252795.43,253795.78,
空白時間2 (0.5秒),canvas.Screen,12_7_2,2023-01-09T08:28:11.669Z,,,d,,,0,493.50599999999395,timeout,eR.jpg,,,254353.8999999999,254275.948,253782.442,253860.7999999998,253795.78,254289.286,
刺激提示,canvas.Screen,12_7_3,2023-01-09T08:28:12.875Z,,,d,false,d,0,1265.3140000001004,response,eR.jpg,b,keypress(f),255560.2999999998,255554.6000000001,254275.948,254354.19999999972,254289.286,255503.044,
フィードバック(0.5秒),canvas.Screen,12_7_4,2023-01-09T08:28:13.376Z,,,d,,,0,493.50599999999395,timeout,eR.jpg,,,256061.69999999972,255983.212,255489.706,255578,255503.044,255996.55,
トライアル,flow.Sequence,12_7,2023-01-09T08:28:13.377Z,,,d,,,0,3681.2880000000005,completion,eR.jpg,,,256062.1000000001,255983.212,252288.586,252367.6000000001,252301.924,255996.55,
空白時間1 (0.5秒),canvas.Screen,12_8_0,2023-01-09T08:28:13.869Z,,,d,,,315,493.50600000002305,timeout,eR.jpg,,,256554.69999999972,256476.718,255983.212,256062.3999999999,255996.55,256490.056,
注視(1秒),canvas.Screen,12_8_1,2023-01-09T08:28:14.869Z,,,d,,,315,1000.3499999999767,timeout,eR.jpg,,,257554.19999999972,257477.068,256476.718,256555,256490.056,257490.406,
空白時間2 (0.5秒),canvas.Screen,12_8_2,2023-01-09T08:28:15.363Z,,,d,,,315,493.50600000002305,timeout,eR.jpg,,,258047.8999999999,257970.574,257477.068,257554.5,257490.406,257983.912,
刺激提示,canvas.Screen,12_8_3,2023-01-09T08:28:15.837Z,,,d,true,d,315,532.688000000082,response,eR.jpg,d,keypress(j),258521.7999999998,258516.6000000001,257970.574,258048.1000000001,257983.912,258464.08,
フィードバック(0.5秒),canvas.Screen,12_8_4,2023-01-09T08:28:16.337Z,,,d,,,315,493.50600000002305,timeout,eR.jpg,,,259022.3999999999,258944.248,258450.742,258539.1000000001,258464.08,258957.586,
トライアル,flow.Sequence,12_8,2023-01-09T08:28:16.338Z,,,d,,,315,2947.698000000004,completion,eR.jpg,,,259022.7999999998,258944.248,255983.212,256062.2999999998,255996.55,258957.586,
空白時間1 (0.5秒),canvas.Screen,12_9_0,2023-01-09T08:28:16.831Z,,,d,,,225,493.50599999999395,timeout,eR.jpg,,,259516.1000000001,259437.754,258944.248,259023,258957.586,259451.092,
注視(1秒),canvas.Screen,12_9_1,2023-01-09T08:28:17.831Z,,,d,,,225,1000.3500000000058,timeout,eR.jpg,,,260516.5,260438.104,259437.754,259516.2999999998,259451.092,260451.442,
空白時間2 (0.5秒),canvas.Screen,12_9_2,2023-01-09T08:28:18.325Z,,,d,,,225,493.50599999999395,timeout,eR.jpg,,,261010.5,260931.61,260438.104,260516.7999999998,260451.442,260944.948,
刺激提示,canvas.Screen,12_9_3,2023-01-09T08:28:19.354Z,,,d,true,d,225,1088.551999999996,response,eR.jpg,d,keypress(j),262039.2999999998,262033.5,260931.61,261010.7999999998,260944.948,261985.312,
フィードバック(0.5秒),canvas.Screen,12_9_4,2023-01-09T08:28:19.858Z,,,d,,,225,493.80199999999604,timeout,eR.jpg,,,262543.7999999998,262465.776,261971.974,262056.1000000001,261985.312,262479.114,
トライアル,flow.Sequence,12_9,2023-01-09T08:28:19.859Z,,,d,,,225,3508.1900000000023,completion,eR.jpg,,,262544.2999999998,262465.776,258944.248,259022.8999999999,258957.586,262479.114,
空白時間1 (0.5秒),canvas.Screen,12_10_0,2023-01-09T08:28:20.352Z,,,d,,,90,493.50599999999395,timeout,eR.jpg,,,263037.2999999998,262959.282,262465.776,262544.5,262479.114,262972.62,
注視(1秒),canvas.Screen,12_10_1,2023-01-09T08:28:21.351Z,,,d,,,90,1000.3499999999767,timeout,eR.jpg,,,264036.6000000001,263959.632,262959.282,263037.6999999997,262972.62,263972.97,
空白時間2 (0.5秒),canvas.Screen,12_10_2,2023-01-09T08:28:21.847Z,,,d,,,90,493.50600000005215,timeout,eR.jpg,,,264531.8999999999,264453.138,263959.632,264037,263972.97,264466.476,
刺激提示,canvas.Screen,12_10_3,2023-01-09T08:28:23.112Z,,,d,true,d,90,1325.624000000069,response,eR.jpg,d,keypress(j),265797.3999999999,265792.1000000001,264453.138,264532.1999999997,264466.476,265746.924,
フィードバック(0.5秒),canvas.Screen,12_10_4,2023-01-09T08:28:23.620Z,,,d,,,90,493.50599999999395,timeout,eR.jpg,,,266305.1999999997,266227.092,265733.586,265813.3999999999,265746.924,266240.43,
トライアル,flow.Sequence,12_10,2023-01-09T08:28:23.620Z,,,d,,,90,3747.978000000003,completion,eR.jpg,,,266305.6999999997,266227.092,262465.776,262544.5,262479.114,266240.43,
空白時間1 (0.5秒),canvas.Screen,12_11_0,2023-01-09T08:28:24.113Z,,,b,,,45,493.50599999999395,timeout,e.jpg,,,266798.6000000001,266720.598,266227.092,266305.8999999999,266240.43,266733.936,
注視(1秒),canvas.Screen,12_11_1,2023-01-09T08:28:25.114Z,,,b,,,45,1000.3500000000349,timeout,e.jpg,,,267799.5,267720.948,266720.598,266798.8999999999,266733.936,267734.286,
空白時間2 (0.5秒),canvas.Screen,12_11_2,2023-01-09T08:28:25.606Z,,,b,,,45,493.50599999999395,timeout,e.jpg,,,268291.5,268214.454,267720.948,267799.6999999997,267734.286,268227.792,
刺激提示,canvas.Screen,12_11_3,2023-01-09T08:28:26.292Z,,,b,true,b,45,744.5079999997979,response,e.jpg,b,keypress(f),268977.6999999997,268972.2999999998,268214.454,268291.6999999997,268227.792,268908.03,
フィードバック(0.5秒),canvas.Screen,12_11_4,2023-01-09T08:28:26.781Z,,,b,,,45,493.50599999999395,timeout,e.jpg,,,269466.1000000001,269388.198,268894.692,268980,268908.03,269401.536,
トライアル,flow.Sequence,12_11,2023-01-09T08:28:26.781Z,,,b,,,45,3147.767999999982,completion,e.jpg,,,269466.5,269388.198,266227.092,266305.7999999998,266240.43,269401.536,
空白時間1 (0.5秒),canvas.Screen,12_12_0,2023-01-09T08:28:27.274Z,,,b,,,270,493.50599999999395,timeout,e.jpg,,,269959.6999999997,269881.704,269388.198,269466.7999999998,269401.536,269895.042,
注視(1秒),canvas.Screen,12_12_1,2023-01-09T08:28:28.274Z,,,b,,,270,1000.3499999999767,timeout,e.jpg,,,270959.8999999999,270882.054,269881.704,269960,269895.042,270895.392,
空白時間2 (0.5秒),canvas.Screen,12_12_2,2023-01-09T08:28:28.768Z,,,b,,,270,493.50599999999395,timeout,e.jpg,,,271454,271375.56,270882.054,270960.1000000001,270895.392,271388.898,
刺激提示,canvas.Screen,12_12_3,2023-01-09T08:28:29.655Z,,,b,true,b,270,945.3019999997341,response,e.jpg,b,keypress(f),272340.6999999997,272334.1999999997,271375.56,271454.1999999997,271388.898,272282.544,
フィードバック(0.5秒),canvas.Screen,12_12_4,2023-01-09T08:28:30.155Z,,,b,,,270,493.8499999999767,timeout,e.jpg,,,272840.8999999999,272763.056,272269.206,272357,272282.544,272776.394,
トライアル,flow.Sequence,12_12,2023-01-09T08:28:30.156Z,,,b,,,270,3361.5199999999604,completion,e.jpg,,,272841.3999999999,272763.056,269388.198,269466.6999999997,269401.536,272776.394,
空白時間1 (0.5秒),canvas.Screen,12_13_0,2023-01-09T08:28:30.649Z,,,b,,,315,493.50600000005215,timeout,e.jpg,,,273334.6000000001,273256.562,272763.056,272841.6000000001,272776.394,273269.9,
注視(1秒),canvas.Screen,12_13_1,2023-01-09T08:28:31.649Z,,,b,,,315,1000.3499999999767,timeout,e.jpg,,,274334.6999999997,274256.912,273256.562,273334.8999999999,273269.9,274270.25,
空白時間2 (0.5秒),canvas.Screen,12_13_2,2023-01-09T08:28:32.143Z,,,b,,,315,493.50599999999395,timeout,e.jpg,,,274828.1999999997,274750.418,274256.912,274335.1000000001,274270.25,274763.756,
刺激提示,canvas.Screen,12_13_3,2023-01-09T08:28:33.142Z,,,b,false,b,315,1059.4439999997267,response,e.jpg,d,keypress(j),275827.8999999999,275823.1999999997,274750.418,274828.5,274763.756,275777.444,
フィードバック(0.5秒),canvas.Screen,12_13_4,2023-01-09T08:28:33.650Z,,,b,,,315,493.50599999999395,timeout,e.jpg,,,276335.6000000001,276257.612,275764.106,275842.1000000001,275777.444,276270.95,
トライアル,flow.Sequence,12_13,2023-01-09T08:28:33.650Z,,,b,,,315,3481.2180000000517,completion,e.jpg,,,276335.8999999999,276257.612,272763.056,272841.5,272776.394,276270.95,
空白時間1 (0.5秒),canvas.Screen,12_14_0,2023-01-09T08:28:34.144Z,,,d,,,180,493.50599999999395,timeout,eR.jpg,,,276829,276751.118,276257.612,276336.1999999997,276270.95,276764.456,
注視(1秒),canvas.Screen,12_14_1,2023-01-09T08:28:35.144Z,,,d,,,180,1000.3499999999767,timeout,eR.jpg,,,277829.7999999998,277751.468,276751.118,276829.3999999999,276764.456,277764.806,
空白時間2 (0.5秒),canvas.Screen,12_14_2,2023-01-09T08:28:35.637Z,,,d,,,180,493.50599999999395,timeout,eR.jpg,,,278323,278244.974,277751.468,277830.1000000001,277764.806,278258.312,
刺激提示,canvas.Screen,12_14_3,2023-01-09T08:28:36.548Z,,,d,false,d,180,970.0879999999306,response,eR.jpg,b,keypress(f),279233.8999999999,279228.3999999999,278244.974,278323.2999999998,278258.312,279165.296,
フィードバック(0.5秒),canvas.Screen,12_14_4,2023-01-09T08:28:37.037Z,,,d,,,180,493.50600000005215,timeout,eR.jpg,,,279722.7999999998,279645.464,279151.958,279237,279165.296,279658.802,
トライアル,flow.Sequence,12_14,2023-01-09T08:28:37.038Z,,,d,,,180,3374.5139999999665,completion,eR.jpg,,,279723.2999999998,279645.464,276257.612,276336.1000000001,276270.95,279658.802,
空白時間1 (0.5秒),canvas.Screen,12_15_0,2023-01-09T08:28:37.531Z,,,d,,,45,493.50599999999395,timeout,eR.jpg,,,280216.8999999999,280138.97,279645.464,279723.5,279658.802,280152.308,
注視(1秒),canvas.Screen,12_15_1,2023-01-09T08:28:38.532Z,,,d,,,45,1000.3499999999767,timeout,eR.jpg,,,281217.5,281139.32,280138.97,280217.1999999997,280152.308,281152.658,
空白時間2 (0.5秒),canvas.Screen,12_15_2,2023-01-09T08:28:39.025Z,,,d,,,45,493.50599999999395,timeout,eR.jpg,,,281710.6999999997,281632.826,281139.32,281217.6999999997,281152.658,281646.164,
刺激提示,canvas.Screen,12_15_3,2023-01-09T08:28:40.072Z,,,d,true,d,45,1105.135999999824,response,eR.jpg,d,keypress(j),282757.6000000001,282751.2999999998,281632.826,281711,281646.164,282713.204,
フィードバック(0.5秒),canvas.Screen,12_15_4,2023-01-09T08:28:40.587Z,,,d,,,45,493.74399999994785,timeout,eR.jpg,,,283272.2999999998,283193.61,282699.866,282786.5,282713.204,283206.948,
トライアル,flow.Sequence,12_15,2023-01-09T08:28:40.587Z,,,d,,,45,3534.807999999961,completion,eR.jpg,,,283272.7999999998,283193.61,279645.464,279723.3999999999,279658.802,283206.948,
タスクのセット,flow.Loop,12,2023-01-09T08:28:40.587Z,,,,,,,53300.45499999999,completion,,,,283273.1000000001,283193.61,229879.817,229959.3999999999,229893.155,283206.948,
空白時間1 (0.5秒),canvas.Screen,13_0_0,2023-01-09T08:28:41.080Z,,,d,,,45,493.50600000005215,timeout,eR.jpg,,,283765.1999999997,283687.116,283193.61,283273.2999999998,283206.948,283700.454,
注視(1秒),canvas.Screen,13_0_1,2023-01-09T08:28:42.080Z,,,d,,,45,1000.3499999999767,timeout,eR.jpg,,,284765.3999999999,284687.466,283687.116,283765.6000000001,283700.454,284700.804,
空白時間2 (0.5秒),canvas.Screen,13_0_2,2023-01-09T08:28:42.573Z,,,d,,,45,493.50599999999395,timeout,eR.jpg,,,285258.8999999999,285180.972,284687.466,284765.6999999997,284700.804,285194.31,
刺激提示,canvas.Screen,13_0_3,2023-01-09T08:28:43.392Z,,,d,true,d,45,877.7900000000955,response,eR.jpg,d,keypress(j),286077.7999999998,286072.1000000001,285180.972,285259.1999999997,285194.31,286021.266,
フィードバック(0.5秒),canvas.Screen,13_0_4,2023-01-09T08:28:43.894Z,,,d,,,45,493.50599999999395,timeout,eR.jpg,,,286579.6000000001,286501.434,286007.928,286094.3999999999,286021.266,286514.772,
トライアル,flow.Sequence,13_0,2023-01-09T08:28:43.894Z,,,d,,,45,3294.4860000000335,completion,eR.jpg,,,286580.1000000001,286501.434,283193.61,283273.2999999998,283206.948,286514.772,
空白時間1 (0.5秒),canvas.Screen,13_1_0,2023-01-09T08:28:44.388Z,,,d,,,315,493.50599999999395,timeout,eR.jpg,,,287073.3999999999,286994.94,286501.434,286580.3999999999,286514.772,287008.278,
注視(1秒),canvas.Screen,13_1_1,2023-01-09T08:28:45.388Z,,,d,,,315,1000.3500000000349,timeout,eR.jpg,,,288073.2999999998,287995.29,286994.94,287073.6999999997,287008.278,288008.628,
空白時間2 (0.5秒),canvas.Screen,13_1_2,2023-01-09T08:28:45.881Z,,,d,,,315,493.50599999999395,timeout,eR.jpg,,,288566.7999999998,288488.796,287995.29,288073.6000000001,288008.628,288502.134,
刺激提示,canvas.Screen,13_1_3,2023-01-09T08:28:47.078Z,,,d,true,d,315,1255.5659999997006,response,eR.jpg,d,keypress(j),289763.3999999999,289757.6999999997,288488.796,288567.1000000001,288502.134,289715.892,
フィードバック(0.5秒),canvas.Screen,13_1_4,2023-01-09T08:28:47.588Z,,,d,,,315,493.50599999999395,timeout,eR.jpg,,,290273.8999999999,290196.06,289702.554,289779.2999999998,289715.892,290209.398,
トライアル,flow.Sequence,13_1,2023-01-09T08:28:47.589Z,,,d,,,315,3681.2880000000005,completion,eR.jpg,,,290274.1999999997,290196.06,286501.434,286580.2999999998,286514.772,290209.398,
空白時間1 (0.5秒),canvas.Screen,13_2_0,2023-01-09T08:28:48.082Z,,,d,,,270,493.50599999999395,timeout,eR.jpg,,,290767.6000000001,290689.566,290196.06,290274.3999999999,290209.398,290702.904,
注視(1秒),canvas.Screen,13_2_1,2023-01-09T08:28:49.082Z,,,d,,,270,1000.3500000000349,timeout,eR.jpg,,,291767.7999999998,291689.916,290689.566,290768,290702.904,291703.254,
空白時間2 (0.5秒),canvas.Screen,13_2_2,2023-01-09T08:28:49.576Z,,,d,,,270,493.50599999999395,timeout,eR.jpg,,,292261.6999999997,292183.422,291689.916,291768.1000000001,291703.254,292196.76,
刺激提示,canvas.Screen,13_2_3,2023-01-09T08:28:50.079Z,,,d,true,d,270,562.7399999999907,response,eR.jpg,d,keypress(j),292765.1999999997,292759.5,292183.422,292262,292196.76,292703.604,
フィードバック(0.5秒),canvas.Screen,13_2_4,2023-01-09T08:28:50.576Z,,,d,,,270,493.50599999999395,timeout,eR.jpg,,,293262.1000000001,293183.772,292690.266,292767.5,292703.604,293197.11,
トライアル,flow.Sequence,13_2,2023-01-09T08:28:50.577Z,,,d,,,270,2974.3740000000107,completion,eR.jpg,,,293262.6000000001,293183.772,290196.06,290274.3999999999,290209.398,293197.11,
空白時間1 (0.5秒),canvas.Screen,13_3_0,2023-01-09T08:28:51.070Z,,,b,,,270,493.899000000034,timeout,e.jpg,,,293756.1000000001,293677.671,293183.772,293262.7999999998,293197.11,293691.009,
注視(1秒),canvas.Screen,13_3_1,2023-01-09T08:28:52.071Z,,,b,,,270,1000.3499999999767,timeout,e.jpg,,,294757.1000000001,294678.021,293677.671,293756.2999999998,293691.009,294691.359,
空白時間2 (0.5秒),canvas.Screen,13_3_2,2023-01-09T08:28:52.564Z,,,b,,,270,493.50599999999395,timeout,e.jpg,,,295250.1000000001,295171.527,294678.021,294757.2999999998,294691.359,295184.865,
刺激提示,canvas.Screen,13_3_3,2023-01-09T08:28:53.425Z,,,b,true,b,270,920.3349999997299,response,e.jpg,b,keypress(f),296110.7999999998,296105.1999999997,295171.527,295250.3999999999,295184.865,296051.835,
フィードバック(0.5秒),canvas.Screen,13_3_4,2023-01-09T08:28:53.925Z,,,b,,,270,493.50599999999395,timeout,e.jpg,,,296610.8999999999,296532.003,296038.497,296127.1000000001,296051.835,296545.341,
トライアル,flow.Sequence,13_3,2023-01-09T08:28:53.926Z,,,b,,,270,3334.89300000004,completion,e.jpg,,,296611.3999999999,296532.003,293183.772,293262.6999999997,293197.11,296545.341,
空白時間1 (0.5秒),canvas.Screen,13_4_0,2023-01-09T08:28:54.418Z,,,b,,,135,493.50599999999395,timeout,e.jpg,,,297104.2999999998,297025.509,296532.003,296611.6999999997,296545.341,297038.847,
注視(1秒),canvas.Screen,13_4_1,2023-01-09T08:28:55.417Z,,,b,,,135,1000.3499999999767,timeout,e.jpg,,,298103.1999999997,298025.859,297025.509,297104.6000000001,297038.847,298039.197,
空白時間2 (0.5秒),canvas.Screen,13_4_2,2023-01-09T08:28:55.911Z,,,b,,,135,493.50599999999395,timeout,e.jpg,,,298597.1999999997,298519.365,298025.859,298103.5,298039.197,298532.703,
刺激提示,canvas.Screen,13_4_3,2023-01-09T08:28:56.933Z,,,b,true,b,135,1080.3970000001136,response,e.jpg,b,keypress(f),299618.5,299613.1000000001,298519.365,298597.3999999999,298532.703,299573.067,
フィードバック(0.5秒),canvas.Screen,13_4_4,2023-01-09T08:28:57.446Z,,,b,,,135,493.50599999999395,timeout,e.jpg,,,300131.8999999999,300053.235,299559.729,299636.5,299573.067,300066.573,
トライアル,flow.Sequence,13_4,2023-01-09T08:28:57.446Z,,,b,,,135,3507.893999999971,completion,e.jpg,,,300132.2999999998,300053.235,296532.003,296611.5,296545.341,300066.573,
空白時間1 (0.5秒),canvas.Screen,13_5_0,2023-01-09T08:28:57.939Z,,,b,,,90,493.50600000005215,timeout,e.jpg,,,300625,300546.741,300053.235,300132.5,300066.573,300560.079,
注視(1秒),canvas.Screen,13_5_1,2023-01-09T08:28:58.940Z,,,b,,,90,1000.3499999999767,timeout,e.jpg,,,301625.3999999999,301547.091,300546.741,300625.2999999998,300560.079,301560.429,
空白時間2 (0.5秒),canvas.Screen,13_5_2,2023-01-09T08:28:59.433Z,,,b,,,90,493.50599999999395,timeout,e.jpg,,,302118.8999999999,302040.597,301547.091,301625.7999999998,301560.429,302053.935,
刺激提示,canvas.Screen,13_5_3,2023-01-09T08:29:00.320Z,,,b,true,b,90,946.3649999998161,response,e.jpg,b,keypress(f),303006.1000000001,303000.2999999998,302040.597,302119.1999999997,302053.935,302947.581,
フィードバック(0.5秒),canvas.Screen,13_5_4,2023-01-09T08:29:00.820Z,,,b,,,90,493.50599999999395,timeout,e.jpg,,,303505.6999999997,303427.749,302934.243,303018.2999999998,302947.581,303441.087,
トライアル,flow.Sequence,13_5,2023-01-09T08:29:00.820Z,,,b,,,90,3361.176000000036,completion,e.jpg,,,303506.2999999998,303427.749,300053.235,300132.5,300066.573,303441.087,
空白時間1 (0.5秒),canvas.Screen,13_6_0,2023-01-09T08:29:01.315Z,,,b,,,180,493.8069999999716,timeout,e.jpg,,,304000.6999999997,303921.556,303427.749,303506.5,303441.087,303934.894,
注視(1秒),canvas.Screen,13_6_1,2023-01-09T08:29:02.314Z,,,b,,,180,1000.3500000000349,timeout,e.jpg,,,304999.7999999998,304921.906,303921.556,304001,303934.894,304935.244,
空白時間2 (0.5秒),canvas.Screen,13_6_2,2023-01-09T08:29:02.808Z,,,b,,,180,493.50599999999395,timeout,e.jpg,,,305493.5,305415.412,304921.906,305000.1000000001,304935.244,305428.75,
刺激提示,canvas.Screen,13_6_3,2023-01-09T08:29:03.432Z,,,b,true,b,180,683.5499999998137,response,e.jpg,b,keypress(f),306118.1000000001,306112.2999999998,305415.412,305493.7999999998,305428.75,306068.974,
フィードバック(0.5秒),canvas.Screen,13_6_4,2023-01-09T08:29:03.941Z,,,b,,,180,493.50599999999395,timeout,e.jpg,,,306627.2999999998,306549.142,306055.636,306134.7999999998,306068.974,306562.48,
トライアル,flow.Sequence,13_6,2023-01-09T08:29:03.941Z,,,b,,,180,3108.054999999993,completion,e.jpg,,,306627.3999999999,306549.142,303427.749,303506.3999999999,303441.087,306562.48,
空白時間1 (0.5秒),canvas.Screen,13_7_0,2023-01-09T08:29:04.435Z,,,b,,,225,493.50599999999395,timeout,e.jpg,,,307120.7999999998,307042.648,306549.142,306627.5,306562.48,307055.986,
注視(1秒),canvas.Screen,13_7_1,2023-01-09T08:29:05.435Z,,,b,,,225,1000.3500000000349,timeout,e.jpg,,,308120.6000000001,308042.998,307042.648,307121,307055.986,308056.336,
空白時間2 (0.5秒),canvas.Screen,13_7_2,2023-01-09T08:29:05.928Z,,,b,,,225,493.50599999999395,timeout,e.jpg,,,308614.5,308536.504,308042.998,308120.7999999998,308056.336,308549.842,
刺激提示,canvas.Screen,13_7_3,2023-01-09T08:29:06.361Z,,,b,false,b,225,492.25800000008894,response,e.jpg,d,keypress(j),309047.3999999999,309042.1000000001,308536.504,308614.6999999997,308549.842,308976.658,
フィードバック(0.5秒),canvas.Screen,13_7_4,2023-01-09T08:29:06.849Z,,,b,,,225,493.50599999999395,timeout,e.jpg,,,309534.7999999998,309456.826,308963.32,309049.2999999998,308976.658,309470.164,
トライアル,flow.Sequence,13_7,2023-01-09T08:29:06.849Z,,,b,,,225,2894.3460000000196,completion,e.jpg,,,309535.2999999998,309456.826,306549.142,306627.3999999999,306562.48,309470.164,
空白時間1 (0.5秒),canvas.Screen,13_8_0,2023-01-09T08:29:07.342Z,,,b,,,315,493.50599999999395,timeout,e.jpg,,,310028.2999999998,309950.332,309456.826,309535.5,309470.164,309963.67,
注視(1秒),canvas.Screen,13_8_1,2023-01-09T08:29:08.343Z,,,b,,,315,1000.3500000000349,timeout,e.jpg,,,311028.7999999998,310950.682,309950.332,310028.6000000001,309963.67,310964.02,
空白時間2 (0.5秒),canvas.Screen,13_8_2,2023-01-09T08:29:08.837Z,,,b,,,315,493.50599999999395,timeout,e.jpg,,,311522.6999999997,311444.188,310950.682,311029.1000000001,310964.02,311457.526,
刺激提示,canvas.Screen,13_8_3,2023-01-09T08:29:09.585Z,,,b,true,b,315,808.8739999998943,response,e.jpg,b,keypress(f),312271.5,312266.3999999999,311444.188,311523,311457.526,312217.792,
フィードバック(0.5秒),canvas.Screen,13_8_4,2023-01-09T08:29:10.090Z,,,b,,,315,493.50599999999395,timeout,e.jpg,,,312776.3999999999,312697.96,312204.454,312287.8999999999,312217.792,312711.298,
トライアル,flow.Sequence,13_8,2023-01-09T08:29:10.091Z,,,b,,,315,3227.796000000031,completion,e.jpg,,,312777,312697.96,309456.826,309535.5,309470.164,312711.298,
空白時間1 (0.5秒),canvas.Screen,13_9_0,2023-01-09T08:29:10.583Z,,,b,,,45,493.50599999999395,timeout,e.jpg,,,313269.3999999999,313191.466,312697.96,312777.1999999997,312711.298,313204.804,
注視(1秒),canvas.Screen,13_9_1,2023-01-09T08:29:11.585Z,,,b,,,45,1000.3499999999767,timeout,e.jpg,,,314270.6999999997,314191.816,313191.466,313269.6999999997,313204.804,314205.154,
空白時間2 (0.5秒),canvas.Screen,13_9_2,2023-01-09T08:29:12.078Z,,,b,,,45,493.82600000000093,timeout,e.jpg,,,314763.6000000001,314685.642,314191.816,314271,314205.154,314698.98,
刺激提示,canvas.Screen,13_9_3,2023-01-09T08:29:12.823Z,,,b,false,b,45,806.2199999997392,response,e.jpg,d,keypress(j),315508.7999999998,315505.1999999997,314685.642,314763.8999999999,314698.98,315445.908,
フィードバック(0.5秒),canvas.Screen,13_9_4,2023-01-09T08:29:13.319Z,,,b,,,45,493.50599999999395,timeout,e.jpg,,,316004.6999999997,315926.076,315432.57,315510.8999999999,315445.908,315939.414,
トライアル,flow.Sequence,13_9,2023-01-09T08:29:13.319Z,,,b,,,45,3214.777999999991,completion,e.jpg,,,316005.1000000001,315926.076,312697.96,312777.1000000001,312711.298,315939.414,
空白時間1 (0.5秒),canvas.Screen,13_10_0,2023-01-09T08:29:13.813Z,,,d,,,0,493.50599999999395,timeout,eR.jpg,,,316498.6999999997,316419.582,315926.076,316005.3999999999,315939.414,316432.92,
注視(1秒),canvas.Screen,13_10_1,2023-01-09T08:29:14.812Z,,,d,,,0,1000.3500000000349,timeout,eR.jpg,,,317497.8999999999,317419.932,316419.582,316499,316432.92,317433.27,
空白時間2 (0.5秒),canvas.Screen,13_10_2,2023-01-09T08:29:15.305Z,,,d,,,0,493.50599999999395,timeout,eR.jpg,,,317991.5,317913.438,317419.932,317498.2999999998,317433.27,317926.776,
刺激提示,canvas.Screen,13_10_3,2023-01-09T08:29:16.311Z,,,d,true,d,0,1063.423999999708,response,eR.jpg,d,keypress(j),318996.7999999998,318990.1999999997,317913.438,317991.7999999998,317926.776,318940.464,
フィードバック(0.5秒),canvas.Screen,13_10_4,2023-01-09T08:29:16.813Z,,,d,,,0,493.50599999999395,timeout,eR.jpg,,,319498.8999999999,319420.632,318927.126,319011.6999999997,318940.464,319433.97,
トライアル,flow.Sequence,13_10,2023-01-09T08:29:16.813Z,,,d,,,0,3481.2179999999935,completion,eR.jpg,,,319499.3999999999,319420.632,315926.076,316005.2999999998,315939.414,319433.97,
空白時間1 (0.5秒),canvas.Screen,13_11_0,2023-01-09T08:29:17.306Z,,,d,,,180,493.50600000005215,timeout,eR.jpg,,,319992.1999999997,319914.138,319420.632,319499.6000000001,319433.97,319927.476,
注視(1秒),canvas.Screen,13_11_1,2023-01-09T08:29:18.306Z,,,d,,,180,1000.3499999999767,timeout,eR.jpg,,,320992.3999999999,320914.488,319914.138,319992.6000000001,319927.476,320927.826,
空白時間2 (0.5秒),canvas.Screen,13_11_2,2023-01-09T08:29:18.800Z,,,d,,,180,493.50599999999395,timeout,eR.jpg,,,321486.5,321407.994,320914.488,320992.6999999997,320927.826,321421.332,
刺激提示,canvas.Screen,13_11_3,2023-01-09T08:29:19.552Z,,,d,false,d,180,811.6680000000051,response,eR.jpg,b,keypress(f),322238.2999999998,322233,321407.994,321486.6999999997,321421.332,322194.936,
フィードバック(0.5秒),canvas.Screen,13_11_4,2023-01-09T08:29:20.067Z,,,d,,,180,493.50599999999395,timeout,eR.jpg,,,322753.1999999997,322675.104,322181.598,322267.3999999999,322194.936,322688.442,
トライアル,flow.Sequence,13_11,2023-01-09T08:29:20.068Z,,,d,,,180,3241.13400000002,completion,eR.jpg,,,322753.7999999998,322675.104,319420.632,319499.5,319433.97,322688.442,
空白時間1 (0.5秒),canvas.Screen,13_12_0,2023-01-09T08:29:20.560Z,,,d,,,225,493.50599999999395,timeout,eR.jpg,,,323246.6000000001,323168.61,322675.104,322754,322688.442,323181.948,
注視(1秒),canvas.Screen,13_12_1,2023-01-09T08:29:21.561Z,,,d,,,225,1000.3500000000349,timeout,eR.jpg,,,324246.7999999998,324168.96,323168.61,323246.8999999999,323181.948,324182.298,
空白時間2 (0.5秒),canvas.Screen,13_12_2,2023-01-09T08:29:22.054Z,,,d,,,225,493.50599999999395,timeout,eR.jpg,,,324740.2999999998,324662.466,324168.96,324247.1000000001,324182.298,324675.804,
刺激提示,canvas.Screen,13_12_3,2023-01-09T08:29:22.746Z,,,d,true,d,225,751.6959999999963,response,eR.jpg,d,keypress(j),325432.6999999997,325427.5,324662.466,324740.5,324675.804,325369.657,
フィードバック(0.5秒),canvas.Screen,13_12_4,2023-01-09T08:29:23.242Z,,,d,,,225,493.50599999999395,timeout,eR.jpg,,,325928.1000000001,325849.825,325356.319,325435.5,325369.657,325863.163,
トライアル,flow.Sequence,13_12,2023-01-09T08:29:23.242Z,,,d,,,225,3161.3830000000307,completion,eR.jpg,,,325928.6000000001,325849.825,322675.104,322753.7999999998,322688.442,325863.163,
空白時間1 (0.5秒),canvas.Screen,13_13_0,2023-01-09T08:29:23.735Z,,,d,,,135,493.50599999999395,timeout,eR.jpg,,,326421.6999999997,326343.331,325849.825,325928.7999999998,325863.163,326356.669,
注視(1秒),canvas.Screen,13_13_1,2023-01-09T08:29:24.735Z,,,d,,,135,1000.3499999999767,timeout,eR.jpg,,,327421.5,327343.681,326343.331,326421.8999999999,326356.669,327357.019,
空白時間2 (0.5秒),canvas.Screen,13_13_2,2023-01-09T08:29:25.229Z,,,d,,,135,493.50600000005215,timeout,eR.jpg,,,327914.8999999999,327837.187,327343.681,327421.7999999998,327357.019,327850.525,
刺激提示,canvas.Screen,13_13_3,2023-01-09T08:29:25.816Z,,,d,true,d,135,645.3749999998836,response,eR.jpg,d,keypress(j),328502,328495.8999999999,327837.187,327915.1999999997,327850.525,328450.735,
フィードバック(0.5秒),canvas.Screen,13_13_4,2023-01-09T08:29:26.323Z,,,d,,,135,493.50599999999395,timeout,eR.jpg,,,329009.3999999999,328930.903,328437.397,328518,328450.735,328944.241,
トライアル,flow.Sequence,13_13,2023-01-09T08:29:26.324Z,,,d,,,135,3067.7399999999907,completion,eR.jpg,,,329010,328930.903,325849.825,325928.7999999998,325863.163,328944.241,
空白時間1 (0.5秒),canvas.Screen,13_14_0,2023-01-09T08:29:26.816Z,,,b,,,0,493.50599999999395,timeout,e.jpg,,,329502.3999999999,329424.409,328930.903,329010.1999999997,328944.241,329437.747,
注視(1秒),canvas.Screen,13_14_1,2023-01-09T08:29:27.816Z,,,b,,,0,1000.3500000000349,timeout,e.jpg,,,330502.6999999997,330424.759,329424.409,329502.6999999997,329437.747,330438.097,
空白時間2 (0.5秒),canvas.Screen,13_14_2,2023-01-09T08:29:28.310Z,,,b,,,0,493.50599999999395,timeout,e.jpg,,,330996.6999999997,330918.265,330424.759,330503,330438.097,330931.603,
刺激提示,canvas.Screen,13_14_3,2023-01-09T08:29:29.307Z,,,b,true,b,0,1055.3969999999972,response,e.jpg,b,keypress(f),331993.5,331987,330918.265,330996.7999999998,330931.603,331945.291,
フィードバック(0.5秒),canvas.Screen,13_14_4,2023-01-09T08:29:29.817Z,,,b,,,0,493.50599999999395,timeout,e.jpg,,,332503.3999999999,332425.459,331931.953,332008.6000000001,331945.291,332438.797,
トライアル,flow.Sequence,13_14,2023-01-09T08:29:29.818Z,,,b,,,0,3481.2179999999935,completion,e.jpg,,,332503.8999999999,332425.459,328930.903,329010.1000000001,328944.241,332438.797,
空白時間1 (0.5秒),canvas.Screen,13_15_0,2023-01-09T08:29:30.311Z,,,d,,,90,493.50599999999395,timeout,eR.jpg,,,332997,332918.965,332425.459,332504.1000000001,332438.797,332932.303,
注視(1秒),canvas.Screen,13_15_1,2023-01-09T08:29:31.311Z,,,d,,,90,1000.3499999999767,timeout,eR.jpg,,,333997.7999999998,333919.315,332918.965,332997.2999999998,332932.303,333932.653,
空白時間2 (0.5秒),canvas.Screen,13_15_2,2023-01-09T08:29:31.805Z,,,d,,,90,493.50599999999395,timeout,eR.jpg,,,334491,334412.821,333919.315,333998.1999999997,333932.653,334426.159,
刺激提示,canvas.Screen,13_15_3,2023-01-09T08:29:32.612Z,,,d,true,d,90,867.941000000108,response,eR.jpg,d,keypress(j),335297.8999999999,335294.1000000001,334412.821,334491.2999999998,334426.159,335239.777,
フィードバック(0.5秒),canvas.Screen,13_15_4,2023-01-09T08:29:33.112Z,,,d,,,90,493.79899999999907,timeout,eR.jpg,,,335798.7999999998,335720.238,335226.439,335300.3999999999,335239.777,335733.576,
トライアル,flow.Sequence,13_15,2023-01-09T08:29:33.113Z,,,d,,,90,3281.4409999999916,completion,eR.jpg,,,335799.2999999998,335720.238,332425.459,332504,332438.797,335733.576,
タスクのセット,flow.Loop,13,2023-01-09T08:29:33.113Z,,,,,,,52513.29000000004,completion,,,,335799.5,335720.238,283193.61,283273.1000000001,283206.948,335733.576,
休憩,canvas.Screen,14,2023-01-09T08:30:33.106Z,,,,,,,59995.21000000002,timeout,,,,395793.5,395715.448,335720.238,335799.6000000001,335733.576,395728.786,
休憩終了,html.Page,15,2023-01-09T08:30:37.501Z,,,,,,,4458.814000000071,form submission,,,,400187.8999999999,400187.6000000001,395715.448,395793.6000000001,395728.786,400104.396,
イントロ2,html.Page,16,2023-01-09T08:30:46.584Z,,,,,,,9166.204000000085,form submission,,,,409271.1000000001,409270.6000000001,400091.058,400188,400104.396,409201.352,
イントロ3,html.Page,17,2023-01-09T08:30:47.197Z,,,,,,,683.0479999998934,form submission,,,,409884.8999999999,409884.3999999999,409188.014,409271.2999999998,409201.352,409814.9,
イントロ4,html.Page,18,2023-01-09T08:30:48.478Z,,,,,,,1349.9999999998836,form submission,,,,411165.2999999998,411164.8999999999,409801.562,409885,409814.9,411095.348,
イントロ5,html.Page,19,2023-01-09T08:30:50.906Z,,,,,,,2497.252000000095,form submission,,,,413593.1000000001,413592.6000000001,411082.01,411165.5,411095.348,413522.864,
できるだけ早く正確に,canvas.Screen,20,2023-01-09T08:30:51.900Z,,,,,,,1000.3499999999767,timeout,,,,414587.3999999999,414509.876,413509.526,413593.3999999999,413522.864,414523.214,
空白時間1 (0.5秒),canvas.Screen,21_0_0,2023-01-09T08:30:52.394Z,,,b,,,45,493.50599999999395,timeout,2.jpg,,,415081.1999999997,415003.382,414509.876,414587.8999999999,414523.214,415016.72,
注視(1秒),canvas.Screen,21_0_1,2023-01-09T08:30:53.394Z,,,b,,,45,1000.3500000000349,timeout,2.jpg,,,416081.6999999997,416003.732,415003.382,415081.5,415016.72,416017.07,
空白時間2 (0.5秒),canvas.Screen,21_0_2,2023-01-09T08:30:53.888Z,,,b,,,45,493.50599999999395,timeout,2.jpg,,,416575.2999999998,416497.238,416003.732,416082,416017.07,416510.576,
刺激提示(練習),canvas.Screen,21_0_3,2023-01-09T08:30:54.431Z,,,b,true,b,45,603.3239999999059,response,2.jpg,b,keypress(f),417118.3999999999,417113.8999999999,416497.238,416575.6000000001,416510.576,417057.434,
フィードバック(0.5秒),canvas.Screen,21_0_4,2023-01-09T08:30:54.929Z,,,b,,,45,493.50599999999395,timeout,2.jpg,,,417616.1000000001,417537.602,417030.758,417134.7999999998,417057.434,417550.94,
トライアル,flow.Sequence,21_0,2023-01-09T08:30:54.929Z,,,b,,,45,3014.3880000000354,completion,2.jpg,,,417616.5,417537.602,414509.876,414587.7999999998,414523.214,417550.94,
空白時間1 (0.5秒),canvas.Screen,21_1_0,2023-01-09T08:30:55.422Z,,,b,,,180,493.50599999999395,timeout,2.jpg,,,418109.7999999998,418031.108,417537.602,417616.6999999997,417550.94,418044.446,
注視(1秒),canvas.Screen,21_1_1,2023-01-09T08:30:56.422Z,,,b,,,180,1000.3499999999767,timeout,2.jpg,,,419109.5,419031.458,418031.108,418110.1000000001,418044.446,419044.796,
空白時間2 (0.5秒),canvas.Screen,21_1_2,2023-01-09T08:30:56.917Z,,,b,,,180,493.89400000002934,timeout,2.jpg,,,419604.1000000001,419525.352,419031.458,419109.6999999997,419044.796,419538.69,
刺激提示(練習),canvas.Screen,21_1_3,2023-01-09T08:30:57.303Z,,,b,false,b,180,448.0099999997183,response,2.jpg,d,keypress(j),419990.3999999999,419986.6999999997,419525.352,419604.5,419538.69,419925.492,
フィードバック(0.5秒),canvas.Screen,21_1_4,2023-01-09T08:30:57.796Z,,,b,,,180,493.50599999999395,timeout,2.jpg,,,420483.6999999997,420405.66,419912.154,419992.1999999997,419925.492,420418.998,
トライアル,flow.Sequence,21_1,2023-01-09T08:30:57.797Z,,,b,,,180,2854.719999999972,completion,2.jpg,,,420484.1999999997,420405.66,417537.602,417616.6999999997,417550.94,420418.998,
空白時間1 (0.5秒),canvas.Screen,21_2_0,2023-01-09T08:30:58.290Z,,,d,,,90,493.50599999999395,timeout,2R.jpg,,,420977.1999999997,420899.166,420405.66,420484.5,420418.998,420912.504,
注視(1秒),canvas.Screen,21_2_1,2023-01-09T08:30:59.290Z,,,d,,,90,1000.3499999999767,timeout,2R.jpg,,,421977.5,421899.516,420899.166,420977.5,420912.504,421912.854,
空白時間2 (0.5秒),canvas.Screen,21_2_2,2023-01-09T08:30:59.784Z,,,d,,,90,493.50599999999395,timeout,2R.jpg,,,422471.6999999997,422393.022,421899.516,421977.7999999998,421912.854,422406.36,
刺激提示(練習),canvas.Screen,21_2_3,2023-01-09T08:31:00.627Z,,,d,true,d,90,902.5399999999208,response,2R.jpg,d,keypress(j),423314.6999999997,423308.8999999999,422393.022,422471.8999999999,422406.36,423259.992,
フィードバック(0.5秒),canvas.Screen,21_2_4,2023-01-09T08:31:01.131Z,,,d,,,90,493.50599999999395,timeout,2R.jpg,,,423819,423740.16,423246.654,423330.6999999997,423259.992,423753.498,
トライアル,flow.Sequence,21_2,2023-01-09T08:31:01.132Z,,,d,,,90,3321.161999999953,completion,2R.jpg,,,423819.5,423740.16,420405.66,420484.2999999998,420418.998,423753.498,
空白時間1 (0.5秒),canvas.Screen,21_3_0,2023-01-09T08:31:01.624Z,,,d,,,225,493.50599999999395,timeout,2R.jpg,,,424311.3999999999,424233.666,423740.16,423819.7999999998,423753.498,424247.004,
注視(1秒),canvas.Screen,21_3_1,2023-01-09T08:31:02.624Z,,,d,,,225,1000.3499999999767,timeout,2R.jpg,,,425312.1999999997,425234.016,424233.666,424311.6999999997,424247.004,425247.354,
空白時間2 (0.5秒),canvas.Screen,21_3_2,2023-01-09T08:31:03.118Z,,,d,,,225,493.50599999999395,timeout,2R.jpg,,,425805.3999999999,425727.522,425234.016,425312.5,425247.354,425740.86,
刺激提示(練習),canvas.Screen,21_3_3,2023-01-09T08:31:04.468Z,,,d,false,d,225,1409.140000000014,response,2R.jpg,b,keypress(f),427155.1999999997,427150,425727.522,425805.6999999997,425740.86,427101.336,
フィードバック(0.5秒),canvas.Screen,21_3_4,2023-01-09T08:31:04.972Z,,,d,,,225,493.50599999999395,timeout,2R.jpg,,,427660,427581.504,427087.998,427170.1000000001,427101.336,427594.842,
