sender,sender_type,sender_id,timestamp,meta,,answer,correct,correctResponse,deg,duration,ended_on,image,response,response_action,time_commit,time_end,time_render,time_run,time_show,time_switch,url
イントロ1,html.Page,0,2023-01-12T14:15:30.239Z,"{""labjs_version"":""20.2.4"",""labjs_build"":{""flavor"":""development"",""commit"":""f5b4a49f956347addd546a832a3327688c2c0fef""},""location"":""https://labjs.felixhenninger.com/api/labjs_preview/index.html"",""userAgent"":""Mozilla/5.0 (Macintosh; Intel Mac OS X 10_15_7) AppleWebKit/537.36 (KHTML, like Gecko) Chrome/108.0.0.0 Safari/537.36"",""platform"":""MacIntel"",""language"":""ja"",""locale"":""ja"",""timeZone"":""Asia/Tokyo"",""timezoneOffset"":-540,""screen_width"":1440,""screen_height"":900,""scroll_width"":1440,""scroll_height"":719,""window_innerWidth"":1440,""window_innerHeight"":767,""devicePixelRatio"":2}",,,,,,45469.016000000745,form submission,,,,46392.5,46391.800000000745,772.79,1394,922.784,45938.121,{}
イントロ2,html.Page,1,2023-01-12T14:15:39.046Z,,,,,,,9261.679000000746,form submission,,,,55200.10000000149,55199.800000000745,45921.441,46393.10000000149,45938.121,54744.262,
イントロ3,html.Page,2,2023-01-12T14:15:56.922Z,,,,,,,18331.538000000743,form submission,,,,73076.19999999925,73075.80000000075,54727.582,55200.39999999851,54744.262,72625.222,
イントロ4,html.Page,3,2023-01-12T14:16:15.350Z,,,,,,,18878.47799999926,form submission,,,,91504.19999999925,91503.69999999925,72608.542,73076.30000000075,72625.222,91054.705,
イントロ5,html.Page,4,2023-01-12T14:16:21.156Z,,,,,,,6254.694999998508,form submission,,,,97309.80000000075,97309.39999999851,91038.025,91504.5,91054.705,96857.516,
できるだけ早く正確に,canvas.Screen,5,2023-01-12T14:16:21.805Z,,,,,,,633.8399999999965,timeout,,,,97959.5,97958.80000000075,96840.836,97310,96857.516,97491.356,
空白時間1 (0.5秒),canvas.Screen,6_0_0,2023-01-12T14:16:22.037Z,,,b,,,270,250.1999999999971,timeout,e.jpg,,,98191.30000000075,98190.69999999925,97958.80000000075,97959.89999999851,97491.356,97741.556,
注視(1秒),canvas.Screen,6_0_1,2023-01-12T14:16:22.693Z,,,b,,,270,633.8399999999965,timeout,e.jpg,,,98847.19999999925,98846.89999999851,98190.69999999925,98191.89999999851,97741.556,98375.396,
空白時間2 (0.5秒),canvas.Screen,6_0_2,2023-01-12T14:16:22.932Z,,,b,,,270,233.52000000000407,timeout,e.jpg,,,99086,99085.10000000149,98846.89999999851,98847.60000000149,98375.396,98608.916,
刺激提示(練習),canvas.Screen,6_0_3,2023-01-12T14:16:23.741Z,,,b,false,b,270,1275.6840000014927,response,e.jpg,d,keypress(j),99895.30000000075,99884.60000000149,99085.10000000149,99086.30000000075,98608.916,99442.916,
フィードバック(0.5秒),canvas.Screen,6_0_4,2023-01-12T14:16:23.970Z,,,b,,,270,233.52000000000407,timeout,e.jpg,,,100124.30000000075,100123.89999999851,99426.236,99896.89999999851,99442.916,99676.436,
トライアル,flow.Sequence,6_0,2023-01-12T14:16:23.971Z,,,b,,,270,2632.54399999851,completion,e.jpg,,,100125.80000000075,100123.89999999851,97958.80000000075,97959.80000000075,97491.356,99676.436,
空白時間1 (0.5秒),canvas.Screen,6_1_0,2023-01-12T14:16:24.005Z,,,d,,,315,16.679999999993015,timeout,eR.jpg,,,100159.30000000075,100159.19999999925,100123.89999999851,100126,99676.436,99693.116,
注視(1秒),canvas.Screen,6_1_1,2023-01-12T14:16:24.632Z,,,d,,,315,617.1600000000035,timeout,eR.jpg,,,100786.39999999851,100786,100159.19999999925,100159.39999999851,99693.116,100310.276,
空白時間2 (0.5秒),canvas.Screen,6_1_2,2023-01-12T14:16:24.636Z,,,d,,,315,16.680000000007567,timeout,eR.jpg,,,100790,100789.69999999925,100786,100786.69999999925,100310.276,100326.956,
刺激提示(練習),canvas.Screen,6_1_3,2023-01-12T14:16:25.613Z,,,d,true,d,315,1424.9439999985043,response,eR.jpg,d,keypress(j),101767.30000000075,101751.89999999851,100789.69999999925,100790.19999999925,100326.956,101311.076,
フィードバック(0.5秒),canvas.Screen,6_1_4,2023-01-12T14:16:25.834Z,,,d,,,315,199.31999999999243,timeout,eR.jpg,,,101988,101987.60000000149,101294.396,101769.39999999851,101311.076,101510.396,
トライアル,flow.Sequence,6_1,2023-01-12T14:16:25.834Z,,,d,,,315,2311.1640000014886,completion,eR.jpg,,,101988.30000000075,101987.60000000149,100123.89999999851,100126,99676.436,101510.396,
空白時間1 (0.5秒),canvas.Screen,6_2_0,2023-01-12T14:16:25.836Z,,,b,,,180,50.04000000000815,timeout,e.jpg,,,101990.5,101990.30000000075,101987.60000000149,101988.5,101510.396,101560.436,
注視(1秒),canvas.Screen,6_2_1,2023-01-12T14:16:26.501Z,,,b,,,180,617.1600000000035,timeout,e.jpg,,,102655.19999999925,102654.80000000075,101990.30000000075,101990.60000000149,101560.436,102177.596,
空白時間2 (0.5秒),canvas.Screen,6_2_2,2023-01-12T14:16:26.504Z,,,b,,,180,50.0399999999936,timeout,e.jpg,,,102658.30000000075,102657.19999999925,102654.80000000075,102655.39999999851,102177.596,102227.636,
刺激提示(練習),canvas.Screen,6_2_3,2023-01-12T14:16:27.484Z,,,b,true,b,180,1403.2639999985113,response,e.jpg,b,keypress(f),103638.60000000149,103630.89999999851,102657.19999999925,102658.60000000149,102227.636,103195.076,
フィードバック(0.5秒),canvas.Screen,6_2_4,2023-01-12T14:16:27.520Z,,,b,,,180,16.679999999993015,timeout,e.jpg,,,103674,103673.80000000075,103178.396,103640.69999999925,103195.076,103211.756,
トライアル,flow.Sequence,6_2,2023-01-12T14:16:27.520Z,,,b,,,180,2163.4040000007517,completion,e.jpg,,,103674,103673.80000000075,101987.60000000149,101988.5,101510.396,103211.756,
空白時間1 (0.5秒),canvas.Screen,6_3_0,2023-01-12T14:16:27.546Z,,,d,,,135,33.36000000000058,timeout,eR.jpg,,,103700.10000000149,103700,103673.80000000075,103674.19999999925,103211.756,103245.116,
注視(1秒),canvas.Screen,6_3_1,2023-01-12T14:16:28.210Z,,,d,,,135,650.5200000000041,timeout,eR.jpg,,,104364.5,104364.10000000149,103700,103700.10000000149,103245.116,103895.636,
空白時間2 (0.5秒),canvas.Screen,6_3_2,2023-01-12T14:16:28.440Z,,,d,,,135,233.52000000000407,timeout,eR.jpg,,,104594,104593.60000000149,104364.10000000149,104364.80000000075,103895.636,104129.156,
刺激提示(練習),canvas.Screen,6_3_3,2023-01-12T14:16:29.376Z,,,d,false,d,135,1391.7439999985072,response,eR.jpg,b,keypress(f),105529.80000000075,105520.89999999851,104593.60000000149,104594.19999999925,104129.156,105096.596,
フィードバック(0.5秒),canvas.Screen,6_3_4,2023-01-12T14:16:29.618Z,,,d,,,135,200.15999999998894,timeout,eR.jpg,,,105772.80000000075,105772.39999999851,105079.916,105531.30000000075,105096.596,105296.756,
トライアル,flow.Sequence,6_3,2023-01-12T14:16:29.619Z,,,d,,,135,2560.643999998516,completion,eR.jpg,,,105773.19999999925,105772.39999999851,103673.80000000075,103674.10000000149,103211.756,105296.756,
練習試行(e),flow.Loop,6,2023-01-12T14:16:29.619Z,,,,,,,8281.04399999851,completion,,,,105773.5,105772.39999999851,97958.80000000075,97959.80000000075,97491.356,105296.756,
イントロ6,html.Page,7,2023-01-12T14:16:38.707Z,,,,,,,9564.844000001496,form submission,,,,114861.69999999925,114861.60000000149,105772.39999999851,105773.60000000149,105296.756,114386.526,
できるだけ早く正確に,canvas.Screen,8,2023-01-12T14:16:39.324Z,,,,,,,617.1600000000035,timeout,,,,115478.60000000149,115478.39999999851,114369.846,114861.80000000075,114386.526,115003.686,
空白時間1 (0.5秒),canvas.Screen,9_0_0,2023-01-12T14:16:39.327Z,,,d,,,45,33.36000000000058,timeout,eR.jpg,,,115481.30000000075,115481,115478.39999999851,115479,115003.686,115037.046,
注視(1秒),canvas.Screen,9_0_1,2023-01-12T14:16:39.980Z,,,d,,,45,633.8399999999965,timeout,eR.jpg,,,116134.60000000149,116134.30000000075,115481,115481.39999999851,115037.046,115670.886,
空白時間2 (0.5秒),canvas.Screen,9_0_2,2023-01-12T14:16:40.195Z,,,d,,,45,216.8399999999965,timeout,eR.jpg,,,116349.39999999851,116349.10000000149,116134.30000000075,116134.89999999851,115670.886,115887.726,
刺激提示,canvas.Screen,9_0_3,2023-01-12T14:16:40.714Z,,,d,false,d,45,973.2740000000049,response,eR.jpg,b,keypress(f),116868.69999999925,116861,116349.10000000149,116349.60000000149,115887.726,116421.486,
フィードバック(0.5秒),canvas.Screen,9_0_4,2023-01-12T14:16:40.752Z,,,d,,,45,16.679999999993015,timeout,eR.jpg,,,116906.10000000149,116905.89999999851,116404.806,116870.10000000149,116421.486,116438.166,
トライアル,flow.Sequence,9_0,2023-01-12T14:16:40.752Z,,,d,,,45,1902.2139999985084,completion,eR.jpg,,,116906.19999999925,116905.89999999851,115478.39999999851,115479,115003.686,116438.166,
空白時間1 (0.5秒),canvas.Screen,9_1_0,2023-01-12T14:16:40.961Z,,,b,,,180,200.1600000000035,timeout,e.jpg,,,117115.60000000149,117115.39999999851,116905.89999999851,116906.30000000075,116438.166,116638.326,
注視(1秒),canvas.Screen,9_1_1,2023-01-12T14:16:41.588Z,,,b,,,180,633.8399999999965,timeout,e.jpg,,,117742.60000000149,117742.30000000075,117115.39999999851,117115.89999999851,116638.326,117272.166,
空白時間2 (0.5秒),canvas.Screen,9_1_2,2023-01-12T14:16:41.794Z,,,b,,,180,200.1600000000035,timeout,e.jpg,,,117948.10000000149,117947.80000000075,117742.30000000075,117742.80000000075,117272.166,117472.326,
刺激提示,canvas.Screen,9_1_3,2023-01-12T14:16:42.481Z,,,b,true,b,180,1154.873999999254,response,e.jpg,b,keypress(f),118635,118627.19999999925,117947.80000000075,117948.30000000075,117472.326,118189.566,
フィードバック(0.5秒),canvas.Screen,9_1_4,2023-01-12T14:16:42.714Z,,,b,,,180,216.8399999999965,timeout,e.jpg,,,118868.80000000075,118868.5,118172.886,118636.89999999851,118189.566,118406.406,
トライアル,flow.Sequence,9_1,2023-01-12T14:16:42.715Z,,,b,,,180,2430.3340000000026,completion,e.jpg,,,118869.19999999925,118868.5,116905.89999999851,116906.30000000075,116438.166,118406.406,
空白時間1 (0.5秒),canvas.Screen,9_2_0,2023-01-12T14:16:42.929Z,,,d,,,90,200.1600000000035,timeout,eR.jpg,,,119083.5,119083.30000000075,118868.5,118869.39999999851,118406.406,118606.566,
注視(1秒),canvas.Screen,9_2_1,2023-01-12T14:16:43.556Z,,,d,,,90,633.8399999999965,timeout,eR.jpg,,,119710.60000000149,119710.19999999925,119083.30000000075,119083.80000000075,118606.566,119240.406,
空白時間2 (0.5秒),canvas.Screen,9_2_2,2023-01-12T14:16:43.762Z,,,d,,,90,200.1600000000035,timeout,eR.jpg,,,119916.30000000075,119916.10000000149,119710.19999999925,119710.80000000075,119240.406,119440.566,
刺激提示,canvas.Screen,9_2_3,2023-01-12T14:16:44.292Z,,,d,false,d,90,998.034000001484,response,eR.jpg,b,keypress(f),120446.19999999925,120438.60000000149,119916.10000000149,119916.5,119440.566,119991.006,
フィードバック(0.5秒),canvas.Screen,9_2_4,2023-01-12T14:16:44.327Z,,,d,,,90,16.680000000007567,timeout,eR.jpg,,,120481.5,120481.30000000075,119974.326,120448.10000000149,119991.006,120007.686,
トライアル,flow.Sequence,9_2,2023-01-12T14:16:44.327Z,,,d,,,90,2074.8940000007424,completion,eR.jpg,,,120481.60000000149,120481.30000000075,118868.5,118869.39999999851,118406.406,120007.686,
空白時間1 (0.5秒),canvas.Screen,9_3_0,2023-01-12T14:16:44.329Z,,,d,,,315,16.679999999993015,timeout,eR.jpg,,,120483.19999999925,120483.19999999925,120481.30000000075,120481.60000000149,120007.686,120024.366,
注視(1秒),canvas.Screen,9_3_1,2023-01-12T14:16:44.973Z,,,d,,,315,633.8400000000111,timeout,eR.jpg,,,121127,121126.69999999925,120483.19999999925,120483.30000000075,120024.366,120658.206,
空白時間2 (0.5秒),canvas.Screen,9_3_2,2023-01-12T14:16:45.007Z,,,d,,,315,33.36000000000058,timeout,eR.jpg,,,121161.5,121161.30000000075,121126.69999999925,121127.19999999925,120658.206,120691.566,
刺激提示,canvas.Screen,9_3_3,2023-01-12T14:16:46.238Z,,,d,true,d,315,1693.1339999992488,response,eR.jpg,d,keypress(j),122392.19999999925,122384.69999999925,121161.30000000075,121161.60000000149,120691.566,121942.566,
フィードバック(0.5秒),canvas.Screen,9_3_4,2023-01-12T14:16:46.464Z,,,d,,,315,199.15599999998813,timeout,eR.jpg,,,122618.80000000075,122618.5,121925.886,122394.5,121942.566,122141.722,
トライアル,flow.Sequence,9_3,2023-01-12T14:16:46.465Z,,,d,,,315,2610.8139999999985,completion,eR.jpg,,,122619.10000000149,122618.5,120481.30000000075,120481.60000000149,120007.686,122141.722,
空白時間1 (0.5秒),canvas.Screen,9_4_0,2023-01-12T14:16:46.467Z,,,d,,,135,50.04000000000815,timeout,eR.jpg,,,122621.19999999925,122621.10000000149,122618.5,122619.30000000075,122141.722,122191.762,
注視(1秒),canvas.Screen,9_4_1,2023-01-12T14:16:47.155Z,,,d,,,135,650.5200000000041,timeout,eR.jpg,,,123309.69999999925,123309.39999999851,122621.10000000149,122621.30000000075,122191.762,122842.282,
空白時間2 (0.5秒),canvas.Screen,9_4_2,2023-01-12T14:16:47.387Z,,,d,,,135,233.51999999998952,timeout,eR.jpg,,,123541.89999999851,123541.5,123309.39999999851,123309.89999999851,122842.282,123075.802,
刺激提示,canvas.Screen,9_4_3,2023-01-12T14:16:47.993Z,,,d,true,d,135,1063.897999999259,response,eR.jpg,d,keypress(j),124147.5,124139.69999999925,123541.5,123542.10000000149,123075.802,123692.962,
フィードバック(0.5秒),canvas.Screen,9_4_4,2023-01-12T14:16:48.029Z,,,d,,,135,16.680000000007567,timeout,eR.jpg,,,124183,124182.89999999851,123676.282,124149.39999999851,123692.962,123709.642,
トライアル,flow.Sequence,9_4,2023-01-12T14:16:48.029Z,,,d,,,135,2041.1779999985156,completion,eR.jpg,,,124183.10000000149,124182.89999999851,122618.5,122619.30000000075,122141.722,123709.642,
空白時間1 (0.5秒),canvas.Screen,9_5_0,2023-01-12T14:16:48.235Z,,,d,,,180,216.8399999999965,timeout,eR.jpg,,,124389.30000000075,124389,124182.89999999851,124183.19999999925,123709.642,123926.482,
注視(1秒),canvas.Screen,9_5_1,2023-01-12T14:16:48.891Z,,,d,,,180,650.5199999999895,timeout,eR.jpg,,,125045.30000000075,125045,124389,124389.5,123926.482,124577.002,
空白時間2 (0.5秒),canvas.Screen,9_5_2,2023-01-12T14:16:49.123Z,,,d,,,180,233.52000000000407,timeout,eR.jpg,,,125277.5,125277.19999999925,125045,125045.5,124577.002,124810.522,
刺激提示,canvas.Screen,9_5_3,2023-01-12T14:16:49.850Z,,,d,true,d,180,1185.7780000007479,response,eR.jpg,d,keypress(j),126004.39999999851,125996.30000000075,125277.19999999925,125277.80000000075,124810.522,125561.122,
フィードバック(0.5秒),canvas.Screen,9_5_4,2023-01-12T14:16:50.081Z,,,d,,,180,200.1600000000035,timeout,eR.jpg,,,126235.30000000075,126235,125544.442,126006.39999999851,125561.122,125761.282,
トライアル,flow.Sequence,9_5,2023-01-12T14:16:50.081Z,,,d,,,180,2525.357999999993,completion,eR.jpg,,,126235.60000000149,126235,124182.89999999851,124183.19999999925,123709.642,125761.282,
空白時間1 (0.5秒),canvas.Screen,9_6_0,2023-01-12T14:16:50.083Z,,,b,,,90,33.36000000000058,timeout,e.jpg,,,126237.89999999851,126237.69999999925,126235,126235.80000000075,125761.282,125794.642,
注視(1秒),canvas.Screen,9_6_1,2023-01-12T14:16:50.731Z,,,b,,,90,617.1599999999889,timeout,e.jpg,,,126885.39999999851,126885.19999999925,126237.69999999925,126238,125794.642,126411.802,
空白時間2 (0.5秒),canvas.Screen,9_6_2,2023-01-12T14:16:50.733Z,,,b,,,90,16.680000000007567,timeout,e.jpg,,,126887.80000000075,126887.69999999925,126885.19999999925,126885.80000000075,126411.802,126428.482,
刺激提示,canvas.Screen,9_6_3,2023-01-12T14:16:51.256Z,,,b,true,b,90,973.8180000007414,response,e.jpg,b,keypress(f),127410,127402.30000000075,126887.69999999925,126888,126428.482,126962.242,
フィードバック(0.5秒),canvas.Screen,9_6_4,2023-01-12T14:16:51.491Z,,,b,,,90,216.8399999999965,timeout,e.jpg,,,127645.39999999851,127645.10000000149,126945.562,127412,126962.242,127179.082,
トライアル,flow.Sequence,9_6,2023-01-12T14:16:51.491Z,,,b,,,90,1883.8180000014836,completion,e.jpg,,,127645.69999999925,127645.10000000149,126235,126235.80000000075,125761.282,127179.082,
空白時間1 (0.5秒),canvas.Screen,9_7_0,2023-01-12T14:16:51.525Z,,,d,,,225,33.36000000000058,timeout,eR.jpg,,,127679.5,127679.39999999851,127645.10000000149,127645.89999999851,127179.082,127212.442,
注視(1秒),canvas.Screen,9_7_1,2023-01-12T14:16:52.176Z,,,d,,,225,650.5200000000041,timeout,eR.jpg,,,128330.89999999851,128330.60000000149,127679.39999999851,127679.60000000149,127212.442,127862.962,
空白時間2 (0.5秒),canvas.Screen,9_7_2,2023-01-12T14:16:52.409Z,,,d,,,225,233.52000000000407,timeout,eR.jpg,,,128563.10000000149,128562.80000000075,128330.60000000149,128331.19999999925,127862.962,128096.482,
刺激提示,canvas.Screen,9_7_3,2023-01-12T14:16:53.348Z,,,d,true,d,225,1398.5179999999964,response,eR.jpg,d,keypress(j),129502.69999999925,129495,128562.80000000075,128563.39999999851,128096.482,129063.922,
フィードバック(0.5秒),canvas.Screen,9_7_4,2023-01-12T14:16:53.587Z,,,d,,,225,200.15999999998894,timeout,eR.jpg,,,129741.5,129741.19999999925,129047.242,129515.69999999925,129063.922,129264.082,
トライアル,flow.Sequence,9_7,2023-01-12T14:16:53.587Z,,,d,,,225,2562.11799999926,completion,eR.jpg,,,129741.89999999851,129741.19999999925,127645.10000000149,127645.89999999851,127179.082,129264.082,
空白時間1 (0.5秒),canvas.Screen,9_8_0,2023-01-12T14:16:53.589Z,,,b,,,0,50.04000000000815,timeout,e.jpg,,,129743.89999999851,129743.69999999925,129741.19999999925,129742.10000000149,129264.082,129314.122,
注視(1秒),canvas.Screen,9_8_1,2023-01-12T14:16:54.260Z,,,b,,,0,633.8399999999965,timeout,e.jpg,,,130414.89999999851,130414.60000000149,129743.69999999925,129744.10000000149,129314.122,129947.962,
空白時間2 (0.5秒),canvas.Screen,9_8_2,2023-01-12T14:16:54.499Z,,,b,,,0,233.52000000000407,timeout,e.jpg,,,130653,130652.69999999925,130414.60000000149,130415.19999999925,129947.962,130181.482,
刺激提示,canvas.Screen,9_8_3,2023-01-12T14:16:54.935Z,,,b,true,b,0,899.7179999992513,response,e.jpg,b,keypress(f),131089.1000000015,131081.19999999925,130652.69999999925,130653.30000000075,130181.482,130631.842,
フィードバック(0.5秒),canvas.Screen,9_8_4,2023-01-12T14:16:55.154Z,,,b,,,0,200.15999999998894,timeout,e.jpg,,,131308.80000000075,131308.6000000015,130615.162,131091.19999999925,130631.842,130832.002,
トライアル,flow.Sequence,9_8,2023-01-12T14:16:55.155Z,,,b,,,0,2044.5180000014952,completion,e.jpg,,,131309.19999999925,131308.6000000015,129741.19999999925,129742.10000000149,129264.082,130832.002,
空白時間1 (0.5秒),canvas.Screen,9_9_0,2023-01-12T14:16:55.157Z,,,d,,,270,33.36000000000058,timeout,eR.jpg,,,131311.19999999925,131311,131308.6000000015,131309.30000000075,130832.002,130865.362,
注視(1秒),canvas.Screen,9_9_1,2023-01-12T14:16:55.799Z,,,d,,,270,617.1600000000035,timeout,eR.jpg,,,131954,131953.69999999925,131311,131311.30000000075,130865.362,131482.522,
空白時間2 (0.5秒),canvas.Screen,9_9_2,2023-01-12T14:16:56.002Z,,,d,,,270,200.1600000000035,timeout,eR.jpg,,,132156.19999999925,132156,131953.69999999925,131954.1000000015,131482.522,131682.682,
刺激提示,canvas.Screen,9_9_3,2023-01-12T14:16:56.510Z,,,d,true,d,270,973.6180000007444,response,eR.jpg,d,keypress(j),132664.1000000015,132656.30000000075,132156,132156.19999999925,131682.682,132216.442,
フィードバック(0.5秒),canvas.Screen,9_9_4,2023-01-12T14:16:56.739Z,,,d,,,270,216.0689999999886,timeout,eR.jpg,,,132893.69999999925,132893.3999999985,132199.762,132665.80000000075,132216.442,132432.511,
トライアル,flow.Sequence,9_9,2023-01-12T14:16:56.740Z,,,d,,,270,2061.3979999985168,completion,eR.jpg,,,132894.1000000015,132893.3999999985,131308.6000000015,131309.30000000075,130832.002,132432.511,
空白時間1 (0.5秒),canvas.Screen,9_10_0,2023-01-12T14:16:56.774Z,,,b,,,225,33.360000000015134,timeout,e.jpg,,,132928.19999999925,132928.1000000015,132893.3999999985,132894.19999999925,132432.511,132465.871,
注視(1秒),canvas.Screen,9_10_1,2023-01-12T14:16:57.413Z,,,b,,,225,633.8399999999965,timeout,e.jpg,,,133567,133566.69999999925,132928.1000000015,132928.30000000075,132465.871,133099.711,
空白時間2 (0.5秒),canvas.Screen,9_10_2,2023-01-12T14:16:57.633Z,,,b,,,225,216.8399999999965,timeout,e.jpg,,,133787.6000000015,133787.3999999985,133566.69999999925,133567.30000000075,133099.711,133316.551,
刺激提示,canvas.Screen,9_10_3,2023-01-12T14:16:58.186Z,,,b,false,b,225,1016.0490000014834,response,e.jpg,d,keypress(j),134340.3999999985,134332.6000000015,133787.3999999985,133787.80000000075,133316.551,133883.671,
フィードバック(0.5秒),canvas.Screen,9_10_4,2023-01-12T14:16:58.411Z,,,b,,,225,216.8399999999965,timeout,e.jpg,,,134565.5,134565.19999999925,133866.991,134342.3999999985,133883.671,134100.511,
トライアル,flow.Sequence,9_10,2023-01-12T14:16:58.411Z,,,b,,,225,2132.6889999992563,completion,e.jpg,,,134565.80000000075,134565.19999999925,132893.3999999985,132894.19999999925,132432.511,134100.511,
空白時間1 (0.5秒),canvas.Screen,9_11_0,2023-01-12T14:16:58.626Z,,,b,,,270,216.8399999999965,timeout,e.jpg,,,134780.19999999925,134779.8999999985,134565.19999999925,134566,134100.511,134317.351,
注視(1秒),canvas.Screen,9_11_1,2023-01-12T14:16:59.259Z,,,b,,,270,633.8399999999965,timeout,e.jpg,,,135413,135412.69999999925,134779.8999999985,134780.3999999985,134317.351,134951.191,
空白時間2 (0.5秒),canvas.Screen,9_11_2,2023-01-12T14:16:59.497Z,,,b,,,270,233.52000000001863,timeout,e.jpg,,,135651,135650.69999999925,135412.69999999925,135413.19999999925,134951.191,135184.711,
刺激提示,canvas.Screen,9_11_3,2023-01-12T14:17:00.076Z,,,b,false,b,270,1037.7889999999898,response,e.jpg,d,keypress(j),136230.80000000075,136222.5,135650.69999999925,135651.30000000075,135184.711,135785.191,
フィードバック(0.5秒),canvas.Screen,9_11_4,2023-01-12T14:17:00.110Z,,,b,,,270,16.68000000002212,timeout,e.jpg,,,136264.80000000075,136264.6000000015,135768.511,136232,135785.191,135801.871,
トライアル,flow.Sequence,9_11,2023-01-12T14:17:00.110Z,,,b,,,270,2164.0890000014915,completion,e.jpg,,,136264.8999999985,136264.6000000015,134565.19999999925,134565.8999999985,134100.511,135801.871,
空白時間1 (0.5秒),canvas.Screen,9_12_0,2023-01-12T14:17:00.321Z,,,b,,,45,200.1599999999744,timeout,e.jpg,,,136475.30000000075,136475,136264.6000000015,136265,135801.871,136002.031,
注視(1秒),canvas.Screen,9_12_1,2023-01-12T14:17:00.948Z,,,b,,,45,633.8400000000256,timeout,e.jpg,,,137102.19999999925,137102,136475,136475.5,136002.031,136635.871,
空白時間2 (0.5秒),canvas.Screen,9_12_2,2023-01-12T14:17:01.186Z,,,b,,,45,233.51999999998952,timeout,e.jpg,,,137340.30000000075,137340,137102,137102.6000000015,136635.871,136869.391,
刺激提示,canvas.Screen,9_12_3,2023-01-12T14:17:01.673Z,,,b,true,b,45,950.7090000014869,response,e.jpg,b,keypress(f),137827.80000000075,137820.1000000015,137340,137340.6000000015,136869.391,137403.151,
フィードバック(0.5秒),canvas.Screen,9_12_4,2023-01-12T14:17:01.929Z,,,b,,,45,216.8399999999965,timeout,e.jpg,,,138083.30000000075,138083,137386.471,137829.8999999985,137403.151,137619.991,
トライアル,flow.Sequence,9_12,2023-01-12T14:17:01.929Z,,,b,,,45,2281.1289999999863,completion,e.jpg,,,138083.69999999925,138083,136264.6000000015,136265,135801.871,137619.991,
空白時間1 (0.5秒),canvas.Screen,9_13_0,2023-01-12T14:17:02.173Z,,,b,,,315,266.88000000000466,timeout,e.jpg,,,138327.1000000015,138326.80000000075,138083,138083.8999999985,137619.991,137886.871,
注視(1秒),canvas.Screen,9_13_1,2023-01-12T14:17:02.829Z,,,b,,,315,633.8399999999965,timeout,e.jpg,,,138983.1000000015,138982.80000000075,138326.80000000075,138327.5,137886.871,138520.711,
空白時間2 (0.5秒),canvas.Screen,9_13_2,2023-01-12T14:17:03.049Z,,,b,,,315,216.8399999999965,timeout,e.jpg,,,139203.6000000015,139203.30000000075,138982.80000000075,138983.3999999985,138520.711,138737.551,
刺激提示,canvas.Screen,9_13_3,2023-01-12T14:17:03.552Z,,,b,true,b,315,961.2490000007383,response,e.jpg,b,keypress(f),139706.69999999925,139698.80000000075,139203.30000000075,139203.8999999985,138737.551,139287.991,
フィードバック(0.5秒),canvas.Screen,9_13_4,2023-01-12T14:17:03.816Z,,,b,,,315,216.8399999999965,timeout,e.jpg,,,139970.1000000015,139969.80000000075,139271.311,139708.80000000075,139287.991,139504.831,
トライアル,flow.Sequence,9_13,2023-01-12T14:17:03.816Z,,,b,,,315,2349.809000000736,completion,e.jpg,,,139970.5,139969.80000000075,138083,138083.80000000075,137619.991,139504.831,
空白時間1 (0.5秒),canvas.Screen,9_14_0,2023-01-12T14:17:04.048Z,,,b,,,135,233.51999999998952,timeout,e.jpg,,,140202.19999999925,140201.80000000075,139969.80000000075,139970.69999999925,139504.831,139738.351,
注視(1秒),canvas.Screen,9_14_1,2023-01-12T14:17:04.675Z,,,b,,,135,617.1600000000035,timeout,e.jpg,,,140829.1000000015,140828.80000000075,140201.80000000075,140202.3999999985,139738.351,140355.511,
空白時間2 (0.5秒),canvas.Screen,9_14_2,2023-01-12T14:17:04.677Z,,,b,,,135,33.360000000015134,timeout,e.jpg,,,140831.8999999985,140831.80000000075,140828.80000000075,140829.3999999985,140355.511,140388.871,
刺激提示,canvas.Screen,9_14_3,2023-01-12T14:17:05.150Z,,,b,false,b,135,907.4290000007313,response,e.jpg,d,keypress(j),141304.1000000015,141296.30000000075,140831.80000000075,140832.1000000015,140388.871,140855.911,
フィードバック(0.5秒),canvas.Screen,9_14_4,2023-01-12T14:17:05.376Z,,,b,,,135,200.1600000000035,timeout,e.jpg,,,141530.80000000075,141530.5,140839.231,141305.3999999985,140855.911,141056.071,
トライアル,flow.Sequence,9_14,2023-01-12T14:17:05.377Z,,,b,,,135,2025.6689999999944,completion,e.jpg,,,141531.30000000075,141530.5,139969.80000000075,139970.6000000015,139504.831,141056.071,
空白時間1 (0.5秒),canvas.Screen,9_15_0,2023-01-12T14:17:05.379Z,,,d,,,0,33.360000000015134,timeout,eR.jpg,,,141533.8999999985,141533.69999999925,141530.5,141531.3999999985,141056.071,141089.431,
注視(1秒),canvas.Screen,9_15_1,2023-01-12T14:17:06.027Z,,,d,,,0,617.1599999999744,timeout,eR.jpg,,,142181.69999999925,142181.3999999985,141533.69999999925,141534.1000000015,141089.431,141706.591,
空白時間2 (0.5秒),canvas.Screen,9_15_2,2023-01-12T14:17:06.030Z,,,d,,,0,33.360000000015134,timeout,eR.jpg,,,142184.5,142184.30000000075,142181.3999999985,142181.80000000075,141706.591,141739.951,
刺激提示,canvas.Screen,9_15_3,2023-01-12T14:17:06.623Z,,,d,true,d,0,1030.1490000014892,response,eR.jpg,d,keypress(j),142777.8999999985,142770.1000000015,142184.30000000075,142184.6000000015,141739.951,142323.751,
フィードバック(0.5秒),canvas.Screen,9_15_4,2023-01-12T14:17:06.851Z,,,d,,,0,215.93400000000838,timeout,eR.jpg,,,143005.8999999985,143005.6000000015,142307.071,142780.1000000015,142323.751,142539.685,
トライアル,flow.Sequence,9_15,2023-01-12T14:17:06.852Z,,,d,,,0,1949.5290000014938,completion,eR.jpg,,,143006.30000000075,143005.6000000015,141530.5,141531.30000000075,141056.071,142539.685,
タスクのセット,flow.Loop,9,2023-01-12T14:17:06.852Z,,,,,,,28001.91400000149,completion,,,,143006.3999999985,143005.6000000015,115478.39999999851,115478.89999999851,115003.686,142539.685,
空白時間1 (0.5秒),canvas.Screen,10_0_0,2023-01-12T14:17:06.887Z,,,d,,,180,33.360000000015134,timeout,eR.jpg,,,143041.19999999925,143041.19999999925,143005.6000000015,143006.69999999925,142539.685,142573.045,
注視(1秒),canvas.Screen,10_0_1,2023-01-12T14:17:07.536Z,,,d,,,180,650.5199999999895,timeout,eR.jpg,,,143690.8999999985,143690.69999999925,143041.19999999925,143041.30000000075,142573.045,143223.565,
空白時間2 (0.5秒),canvas.Screen,10_0_2,2023-01-12T14:17:07.745Z,,,d,,,180,200.1600000000035,timeout,eR.jpg,,,143899.30000000075,143899,143690.69999999925,143691.30000000075,143223.565,143423.725,
刺激提示,canvas.Screen,10_0_3,2023-01-12T14:17:08.374Z,,,d,false,d,180,1101.0750000007392,response,eR.jpg,b,keypress(f),144528.6000000015,144524.80000000075,143899,143899.3999999985,143423.725,144124.285,
フィードバック(0.5秒),canvas.Screen,10_0_4,2023-01-12T14:17:08.651Z,,,d,,,180,216.8399999999965,timeout,eR.jpg,,,144805.5,144805.19999999925,144107.605,144529.80000000075,144124.285,144341.125,
トライアル,flow.Sequence,10_0,2023-01-12T14:17:08.651Z,,,d,,,180,2265.5149999992573,completion,eR.jpg,,,144805.8999999985,144805.19999999925,143005.6000000015,143006.69999999925,142539.685,144341.125,
空白時間1 (0.5秒),canvas.Screen,10_1_0,2023-01-12T14:17:08.883Z,,,d,,,135,233.51999999998952,timeout,eR.jpg,,,145037.69999999925,145037.3999999985,144805.19999999925,144806.1000000015,144341.125,144574.645,
注視(1秒),canvas.Screen,10_1_1,2023-01-12T14:17:09.539Z,,,d,,,135,650.5200000000186,timeout,eR.jpg,,,145693.69999999925,145693.30000000075,145037.3999999985,145037.8999999985,144574.645,145225.165,
空白時間2 (0.5秒),canvas.Screen,10_1_2,2023-01-12T14:17:09.748Z,,,d,,,135,200.1600000000035,timeout,eR.jpg,,,145902.6000000015,145902.30000000075,145693.30000000075,145693.8999999985,145225.165,145425.325,
刺激提示,canvas.Screen,10_1_3,2023-01-12T14:17:10.404Z,,,d,true,d,135,1124.7750000014785,response,eR.jpg,d,keypress(j),146558.8999999985,146550.1000000015,145902.30000000075,145902.80000000075,145425.325,146142.565,
フィードバック(0.5秒),canvas.Screen,10_1_4,2023-01-12T14:17:10.665Z,,,d,,,135,200.1600000000035,timeout,eR.jpg,,,146819.80000000075,146819.5,146125.885,146591.3999999985,146142.565,146342.725,
トライアル,flow.Sequence,10_1,2023-01-12T14:17:10.666Z,,,d,,,135,2478.375,completion,eR.jpg,,,146820.19999999925,146819.5,144805.19999999925,144806.1000000015,144341.125,146342.725,
空白時間1 (0.5秒),canvas.Screen,10_2_0,2023-01-12T14:17:10.669Z,,,d,,,90,16.679999999993015,timeout,eR.jpg,,,146823.30000000075,146823,146819.5,146820.3999999985,146342.725,146359.405,
注視(1秒),canvas.Screen,10_2_1,2023-01-12T14:17:11.298Z,,,d,,,90,617.1600000000035,timeout,eR.jpg,,,147452.5,147452.19999999925,146823,146823.3999999985,146359.405,146976.565,
空白時間2 (0.5秒),canvas.Screen,10_2_2,2023-01-12T14:17:11.301Z,,,d,,,90,16.679999999993015,timeout,eR.jpg,,,147455.6000000015,147455.30000000075,147452.19999999925,147452.69999999925,146976.565,146993.245,
刺激提示,canvas.Screen,10_2_3,2023-01-12T14:17:12.013Z,,,d,true,d,90,1165.4549999992596,response,eR.jpg,d,keypress(j),148167.69999999925,148158.69999999925,147455.30000000075,147455.80000000075,146993.245,147710.485,
フィードバック(0.5秒),canvas.Screen,10_2_4,2023-01-12T14:17:12.233Z,,,d,,,90,200.1600000000035,timeout,eR.jpg,,,148387.1000000015,148386.8999999985,147693.805,148168.6000000015,147710.485,147910.645,
トライアル,flow.Sequence,10_2,2023-01-12T14:17:12.233Z,,,d,,,90,2044.174999998504,completion,eR.jpg,,,148387.5,148386.8999999985,146819.5,146820.30000000075,146342.725,147910.645,
空白時間1 (0.5秒),canvas.Screen,10_3_0,2023-01-12T14:17:12.235Z,,,d,,,315,33.360000000015134,timeout,eR.jpg,,,148389.3999999985,148389.30000000075,148386.8999999985,148387.6000000015,147910.645,147944.005,
注視(1秒),canvas.Screen,10_3_1,2023-01-12T14:17:12.883Z,,,d,,,315,617.1600000000035,timeout,eR.jpg,,,149037.30000000075,149037.1000000015,148389.30000000075,148389.6000000015,147944.005,148561.165,
空白時間2 (0.5秒),canvas.Screen,10_3_2,2023-01-12T14:17:12.886Z,,,d,,,315,16.679999999993015,timeout,eR.jpg,,,149040.19999999925,149039.8999999985,149037.1000000015,149037.6000000015,148561.165,148577.845,
刺激提示,canvas.Screen,10_3_3,2023-01-12T14:17:13.610Z,,,d,false,d,315,1178.5549999985087,response,eR.jpg,b,keypress(f),149764.1000000015,149756.3999999985,149039.8999999985,149040.3999999985,148577.845,149311.765,
フィードバック(0.5秒),canvas.Screen,10_3_4,2023-01-12T14:17:13.835Z,,,d,,,315,200.1599999999744,timeout,eR.jpg,,,149989.30000000075,149989,149295.085,149766,149311.765,149511.925,
トライアル,flow.Sequence,10_3,2023-01-12T14:17:13.835Z,,,d,,,315,2078.3550000000105,completion,eR.jpg,,,149989.6000000015,149989,148386.8999999985,148387.6000000015,147910.645,149511.925,
空白時間1 (0.5秒),canvas.Screen,10_4_0,2023-01-12T14:17:13.837Z,,,b,,,135,50.04000000000815,timeout,e.jpg,,,149991.69999999925,149991.5,149989,149989.8999999985,149511.925,149561.965,
注視(1秒),canvas.Screen,10_4_1,2023-01-12T14:17:14.508Z,,,b,,,135,633.8399999999965,timeout,e.jpg,,,150662.80000000075,150662.3999999985,149991.5,149991.8999999985,149561.965,150195.805,
空白時間2 (0.5秒),canvas.Screen,10_4_2,2023-01-12T14:17:14.723Z,,,b,,,135,216.8399999999965,timeout,e.jpg,,,150877.6000000015,150877.19999999925,150662.3999999985,150663,150195.805,150412.645,
刺激提示,canvas.Screen,10_4_3,2023-01-12T14:17:15.502Z,,,b,true,b,135,1233.8550000000105,response,e.jpg,b,keypress(f),151656.30000000075,151646.5,150877.19999999925,150877.69999999925,150412.645,151263.325,
フィードバック(0.5秒),canvas.Screen,10_4_4,2023-01-12T14:17:15.785Z,,,b,,,135,200.1599999999744,timeout,e.jpg,,,151939.8999999985,151939.5,151246.645,151658.1000000015,151263.325,151463.485,
トライアル,flow.Sequence,10_4,2023-01-12T14:17:15.786Z,,,b,,,135,2427.5750000000116,completion,e.jpg,,,151940.19999999925,151939.5,149989,149989.80000000075,149511.925,151463.485,
空白時間1 (0.5秒),canvas.Screen,10_5_0,2023-01-12T14:17:15.789Z,,,d,,,45,16.68000000002212,timeout,eR.jpg,,,151943.19999999925,151943,151939.5,151940.3999999985,151463.485,151480.165,
注視(1秒),canvas.Screen,10_5_1,2023-01-12T14:17:16.418Z,,,d,,,45,617.1600000000035,timeout,eR.jpg,,,152572.5,152572.30000000075,151943,151943.30000000075,151480.165,152097.325,
空白時間2 (0.5秒),canvas.Screen,10_5_2,2023-01-12T14:17:16.420Z,,,d,,,45,16.679999999993015,timeout,eR.jpg,,,152574.69999999925,152574.5,152572.30000000075,152572.80000000075,152097.325,152114.005,
刺激提示,canvas.Screen,10_5_3,2023-01-12T14:17:16.940Z,,,d,true,d,45,972.4949999999953,response,eR.jpg,d,keypress(j),153095,153086.5,152574.5,152574.80000000075,152114.005,152681.125,
フィードバック(0.5秒),canvas.Screen,10_5_4,2023-01-12T14:17:17.003Z,,,d,,,45,16.679999999993015,timeout,eR.jpg,,,153158,153157.80000000075,152664.445,153097.30000000075,152681.125,152697.805,
トライアル,flow.Sequence,10_5,2023-01-12T14:17:17.004Z,,,d,,,45,1694.315000000759,completion,eR.jpg,,,153158.1000000015,153157.80000000075,151939.5,151940.3999999985,151463.485,152697.805,
空白時間1 (0.5秒),canvas.Screen,10_6_0,2023-01-12T14:17:17.219Z,,,b,,,45,199.27499999999418,timeout,e.jpg,,,153373.6000000015,153373.30000000075,153157.80000000075,153158.30000000075,152697.805,152897.08,
注視(1秒),canvas.Screen,10_6_1,2023-01-12T14:17:17.835Z,,,b,,,45,650.5200000000186,timeout,e.jpg,,,153989.69999999925,153988.69999999925,153373.30000000075,153373.80000000075,152897.08,153547.6,
空白時間2 (0.5秒),canvas.Screen,10_6_2,2023-01-12T14:17:17.869Z,,,b,,,45,16.679999999993015,timeout,e.jpg,,,154023.8999999985,154023.80000000075,153988.69999999925,153989.8999999985,153547.6,153564.28,
刺激提示,canvas.Screen,10_6_3,2023-01-12T14:17:18.368Z,,,b,true,b,45,950.9199999992561,response,e.jpg,b,keypress(f),154522.8999999985,154515.19999999925,154023.80000000075,154024,153564.28,154064.68,
フィードバック(0.5秒),canvas.Screen,10_6_4,2023-01-12T14:17:18.405Z,,,b,,,45,33.360000000015134,timeout,e.jpg,,,154559.80000000075,154559.3999999985,154048,154524.8999999985,154064.68,154098.04,
トライアル,flow.Sequence,10_6,2023-01-12T14:17:18.405Z,,,b,,,45,1861.5949999985169,completion,e.jpg,,,154560,154559.3999999985,153157.80000000075,153158.19999999925,152697.805,154098.04,
空白時間1 (0.5秒),canvas.Screen,10_7_0,2023-01-12T14:17:18.618Z,,,b,,,315,200.1600000000035,timeout,e.jpg,,,154772.6000000015,154772.30000000075,154559.3999999985,154560,154098.04,154298.2,
注視(1秒),canvas.Screen,10_7_1,2023-01-12T14:17:19.245Z,,,b,,,315,633.8399999999965,timeout,e.jpg,,,155399.19999999925,155398.80000000075,154772.30000000075,154772.8999999985,154298.2,154932.04,
空白時間2 (0.5秒),canvas.Screen,10_7_2,2023-01-12T14:17:19.460Z,,,b,,,315,216.8399999999965,timeout,e.jpg,,,155614.3999999985,155614,155398.80000000075,155399.3999999985,154932.04,155148.88,
刺激提示,canvas.Screen,10_7_3,2023-01-12T14:17:19.898Z,,,b,true,b,315,896.3199999992503,response,e.jpg,b,keypress(f),156053.1000000015,156045.19999999925,155614,155614.5,155148.88,155632.6,
フィードバック(0.5秒),canvas.Screen,10_7_4,2023-01-12T14:17:19.953Z,,,b,,,315,16.679999999993015,timeout,e.jpg,,,156108.1000000015,156107.8999999985,155615.92,156055.3999999985,155632.6,155649.28,
トライアル,flow.Sequence,10_7,2023-01-12T14:17:19.954Z,,,b,,,315,2009.8599999985017,completion,e.jpg,,,156108.19999999925,156107.8999999985,154559.3999999985,154560,154098.04,155649.28,
空白時間1 (0.5秒),canvas.Screen,10_8_0,2023-01-12T14:17:20.168Z,,,d,,,270,200.1600000000035,timeout,eR.jpg,,,156322.6000000015,156322.30000000075,156107.8999999985,156108.30000000075,155649.28,155849.44,
注視(1秒),canvas.Screen,10_8_1,2023-01-12T14:17:20.784Z,,,d,,,270,617.1600000000035,timeout,eR.jpg,,,156938.69999999925,156938.3999999985,156322.30000000075,156322.80000000075,155849.44,156466.6,
空白時間2 (0.5秒),canvas.Screen,10_8_2,2023-01-12T14:17:21.017Z,,,d,,,270,233.51999999998952,timeout,eR.jpg,,,157172,157171.69999999925,156938.3999999985,156939,156466.6,156700.12,
刺激提示,canvas.Screen,10_8_3,2023-01-12T14:17:21.720Z,,,d,true,d,270,1167.6800000007497,response,eR.jpg,d,keypress(j),157874.69999999925,157867.80000000075,157171.69999999925,157172.30000000075,156700.12,157417.36,
フィードバック(0.5秒),canvas.Screen,10_8_4,2023-01-12T14:17:21.947Z,,,d,,,270,216.8400000000256,timeout,eR.jpg,,,158101.19999999925,158100.8999999985,157400.68,157875.8999999985,157417.36,157634.2,
トライアル,flow.Sequence,10_8,2023-01-12T14:17:21.947Z,,,d,,,270,2451.619999998511,completion,eR.jpg,,,158101.6000000015,158100.8999999985,156107.8999999985,156108.30000000075,155649.28,157634.2,
空白時間1 (0.5秒),canvas.Screen,10_9_0,2023-01-12T14:17:22.164Z,,,d,,,0,216.8399999999965,timeout,eR.jpg,,,158319.1000000015,158318.80000000075,158100.8999999985,158101.80000000075,157634.2,157851.04,
注視(1秒),canvas.Screen,10_9_1,2023-01-12T14:17:22.792Z,,,d,,,0,633.8399999999965,timeout,eR.jpg,,,158946.3999999985,158946.1000000015,158318.80000000075,158319.30000000075,157851.04,158484.88,
空白時間2 (0.5秒),canvas.Screen,10_9_2,2023-01-12T14:17:23.012Z,,,d,,,0,216.8399999999965,timeout,eR.jpg,,,159167,159166.69999999925,158946.1000000015,158946.69999999925,158484.88,158701.72,
刺激提示,canvas.Screen,10_9_3,2023-01-12T14:17:23.757Z,,,d,true,d,0,1202.380000001489,response,eR.jpg,d,keypress(j),159911.8999999985,159904.1000000015,159166.69999999925,159167.19999999925,158701.72,159452.32,
フィードバック(0.5秒),canvas.Screen,10_9_4,2023-01-12T14:17:23.793Z,,,d,,,0,33.35999999998603,timeout,eR.jpg,,,159947.80000000075,159947.69999999925,159435.64,159913.6000000015,159452.32,159485.68,
トライアル,flow.Sequence,10_9,2023-01-12T14:17:23.793Z,,,d,,,0,2313.4999999992433,completion,eR.jpg,,,159947.8999999985,159947.69999999925,158100.8999999985,158101.80000000075,157634.2,159485.68,
空白時間1 (0.5秒),canvas.Screen,10_10_0,2023-01-12T14:17:23.809Z,,,b,,,180,16.679999999993015,timeout,e.jpg,,,159964.1000000015,159964,159947.69999999925,159948,159485.68,159502.36,
注視(1秒),canvas.Screen,10_10_1,2023-01-12T14:17:24.452Z,,,b,,,180,633.8400000000256,timeout,e.jpg,,,160606.6000000015,160606.3999999985,159964,159964.1000000015,159502.36,160136.2,
空白時間2 (0.5秒),canvas.Screen,10_10_2,2023-01-12T14:17:24.684Z,,,b,,,180,233.51999999998952,timeout,e.jpg,,,160838.8999999985,160838.6000000015,160606.3999999985,160606.8999999985,160136.2,160369.72,
刺激提示,canvas.Screen,10_10_3,2023-01-12T14:17:25.163Z,,,b,false,b,180,940.5800000007439,response,e.jpg,d,keypress(j),161317.80000000075,161310.30000000075,160838.6000000015,160839.19999999925,160369.72,160886.8,
フィードバック(0.5秒),canvas.Screen,10_10_4,2023-01-12T14:17:25.410Z,,,b,,,180,200.1600000000035,timeout,e.jpg,,,161564.5,161564.19999999925,160870.12,161330,160886.8,161086.96,
トライアル,flow.Sequence,10_10,2023-01-12T14:17:25.410Z,,,b,,,180,2078.519999999262,completion,e.jpg,,,161564.8999999985,161564.19999999925,159947.69999999925,159947.8999999985,159485.68,161086.96,
空白時間1 (0.5秒),canvas.Screen,10_11_0,2023-01-12T14:17:25.413Z,,,b,,,0,16.68000000002212,timeout,e.jpg,,,161567.8999999985,161567.6000000015,161564.19999999925,161565.1000000015,161086.96,161103.64,
注視(1秒),canvas.Screen,10_11_1,2023-01-12T14:17:26.043Z,,,b,,,0,617.1599999999744,timeout,e.jpg,,,162197.30000000075,162197,161567.6000000015,161568,161103.64,161720.8,
空白時間2 (0.5秒),canvas.Screen,10_11_2,2023-01-12T14:17:26.045Z,,,b,,,0,16.68000000002212,timeout,e.jpg,,,162199.30000000075,162199.1000000015,162197,162197.5,161720.8,161737.48,
刺激提示,canvas.Screen,10_11_3,2023-01-12T14:17:26.613Z,,,b,true,b,0,990.3200000007346,response,e.jpg,b,keypress(f),162767.80000000075,162727.80000000075,162199.1000000015,162199.5,161737.48,162321.28,
フィードバック(0.5秒),canvas.Screen,10_11_4,2023-01-12T14:17:26.850Z,,,b,,,0,216.8399999999965,timeout,e.jpg,,,163004.19999999925,163003.8999999985,162304.6,162768.5,162321.28,162538.12,
トライアル,flow.Sequence,10_11,2023-01-12T14:17:26.850Z,,,b,,,0,1916.939999998518,completion,e.jpg,,,163004.6000000015,163003.8999999985,161564.19999999925,161565,161086.96,162538.12,
空白時間1 (0.5秒),canvas.Screen,10_12_0,2023-01-12T14:17:27.082Z,,,b,,,270,233.52000000001863,timeout,e.jpg,,,163236.30000000075,163236.1000000015,163003.8999999985,163004.69999999925,162538.12,162771.64,
注視(1秒),canvas.Screen,10_12_1,2023-01-12T14:17:27.704Z,,,b,,,270,616.1549999999988,timeout,e.jpg,,,163858.80000000075,163858.6000000015,163236.1000000015,163236.6000000015,162771.64,163387.795,
空白時間2 (0.5秒),canvas.Screen,10_12_2,2023-01-12T14:17:27.947Z,,,b,,,270,250.19999999998254,timeout,e.jpg,,,164101.19999999925,164101,163858.6000000015,163859,163387.795,163637.995,
刺激提示,canvas.Screen,10_12_3,2023-01-12T14:17:28.460Z,,,b,true,b,270,968.7049999992596,response,e.jpg,b,keypress(f),164614.30000000075,164606.69999999925,164101,164101.5,163637.995,164155.075,
フィードバック(0.5秒),canvas.Screen,10_12_4,2023-01-12T14:17:28.684Z,,,b,,,270,216.8399999999965,timeout,e.jpg,,,164838.5,164838.19999999925,164138.395,164616.1000000015,164155.075,164371.915,
トライアル,flow.Sequence,10_12,2023-01-12T14:17:28.684Z,,,b,,,270,2300.0799999992596,completion,e.jpg,,,164838.80000000075,164838.19999999925,163003.8999999985,163004.69999999925,162538.12,164371.915,
空白時間1 (0.5秒),canvas.Screen,10_13_0,2023-01-12T14:17:28.899Z,,,b,,,90,216.8399999999965,timeout,e.jpg,,,165053.30000000075,165053,164838.19999999925,164839.1000000015,164371.915,164588.755,
注視(1秒),canvas.Screen,10_13_1,2023-01-12T14:17:29.531Z,,,b,,,90,633.8399999999965,timeout,e.jpg,,,165686,165685.69999999925,165053,165053.3999999985,164588.755,165222.595,
空白時間2 (0.5秒),canvas.Screen,10_13_2,2023-01-12T14:17:29.746Z,,,b,,,90,216.8399999999965,timeout,e.jpg,,,165900.8999999985,165900.5,165685.69999999925,165686.30000000075,165222.595,165439.435,
刺激提示,canvas.Screen,10_13_3,2023-01-12T14:17:30.260Z,,,b,true,b,90,967.3650000007474,response,e.jpg,b,keypress(f),166414.30000000075,166406.80000000075,165900.5,165901.1000000015,165439.435,165956.515,
フィードバック(0.5秒),canvas.Screen,10_13_4,2023-01-12T14:17:30.484Z,,,b,,,90,216.8399999999965,timeout,e.jpg,,,166638.30000000075,166638.1000000015,165939.835,166416,165956.515,166173.355,
トライアル,flow.Sequence,10_13,2023-01-12T14:17:30.484Z,,,b,,,90,2266.185000001482,completion,e.jpg,,,166638.69999999925,166638.1000000015,164838.19999999925,164839,164371.915,166173.355,
空白時間1 (0.5秒),canvas.Screen,10_14_0,2023-01-12T14:17:30.698Z,,,d,,,225,216.8399999999965,timeout,eR.jpg,,,166852.80000000075,166852.5,166638.1000000015,166638.8999999985,166173.355,166390.195,
注視(1秒),canvas.Screen,10_14_1,2023-01-12T14:17:31.331Z,,,d,,,225,633.8399999999965,timeout,eR.jpg,,,167485.5,167485.19999999925,166852.5,166853,166390.195,167024.035,
空白時間2 (0.5秒),canvas.Screen,10_14_2,2023-01-12T14:17:31.563Z,,,d,,,225,216.8399999999965,timeout,eR.jpg,,,167717.80000000075,167717.5,167485.19999999925,167485.80000000075,167024.035,167240.875,
刺激提示,canvas.Screen,10_14_3,2023-01-12T14:17:32.139Z,,,d,true,d,225,1044.5249999985099,response,eR.jpg,d,keypress(j),168293.3999999985,168285.3999999985,167717.5,167718,167240.875,167841.355,
フィードバック(0.5秒),canvas.Screen,10_14_4,2023-01-12T14:17:32.361Z,,,d,,,225,200.1600000000035,timeout,eR.jpg,,,168515.69999999925,168515.3999999985,167824.675,168295.30000000075,167841.355,168041.515,
トライアル,flow.Sequence,10_14,2023-01-12T14:17:32.361Z,,,d,,,225,2342.0449999984994,completion,eR.jpg,,,168516,168515.3999999985,166638.1000000015,166638.69999999925,166173.355,168041.515,
空白時間1 (0.5秒),canvas.Screen,10_15_0,2023-01-12T14:17:32.364Z,,,b,,,225,33.35999999998603,timeout,e.jpg,,,168518.19999999925,168518,168515.3999999985,168516.19999999925,168041.515,168074.875,
注視(1秒),canvas.Screen,10_15_1,2023-01-12T14:17:33.020Z,,,b,,,225,633.8399999999965,timeout,e.jpg,,,169174.8999999985,169174.6000000015,168518,168518.5,168074.875,168708.715,
空白時間2 (0.5秒),canvas.Screen,10_15_2,2023-01-12T14:17:33.236Z,,,b,,,225,216.8399999999965,timeout,e.jpg,,,169390.69999999925,169390.3999999985,169174.6000000015,169175.19999999925,168708.715,168925.555,
刺激提示,canvas.Screen,10_15_3,2023-01-12T14:17:34.040Z,,,b,true,b,225,1261.245000000752,response,e.jpg,b,keypress(f),170194.6000000015,170186.80000000075,169390.3999999985,169390.80000000075,168925.555,169742.875,
フィードバック(0.5秒),canvas.Screen,10_15_4,2023-01-12T14:17:34.268Z,,,b,,,225,216.8399999999965,timeout,e.jpg,,,170423,170422.69999999925,169726.195,170196.6000000015,169742.875,169959.715,
トライアル,flow.Sequence,10_15,2023-01-12T14:17:34.269Z,,,b,,,225,2381.184999999241,completion,e.jpg,,,170423.3999999985,170422.69999999925,168515.3999999985,168516.19999999925,168041.515,169959.715,
タスクのセット,flow.Loop,10,2023-01-12T14:17:34.269Z,,,,,,,27883.014999999257,completion,,,,170423.6000000015,170422.69999999925,143005.6000000015,143006.6000000015,142539.685,169959.715,
空白時間1 (0.5秒),canvas.Screen,11_0_0,2023-01-12T14:17:34.303Z,,,d,,,270,33.360000000015134,timeout,eR.jpg,,,170457.8999999985,170457.69999999925,170422.69999999925,170423.80000000075,169959.715,169993.075,
注視(1秒),canvas.Screen,11_0_1,2023-01-12T14:17:34.930Z,,,d,,,270,617.1599999999744,timeout,eR.jpg,,,171084.69999999925,171084.30000000075,170457.69999999925,170458,169993.075,170610.235,
空白時間2 (0.5秒),canvas.Screen,11_0_2,2023-01-12T14:17:34.933Z,,,d,,,270,16.68000000002212,timeout,eR.jpg,,,171087.80000000075,171087.5,171084.30000000075,171084.8999999985,170610.235,170626.915,
刺激提示,canvas.Screen,11_0_3,2023-01-12T14:17:35.604Z,,,d,true,d,270,1123.5849999999919,response,eR.jpg,d,keypress(j),171758.30000000075,171750.5,171087.5,171087.8999999985,170626.915,171310.795,
フィードバック(0.5秒),canvas.Screen,11_0_4,2023-01-12T14:17:35.639Z,,,d,,,270,16.679999999993015,timeout,eR.jpg,,,171793.80000000075,171793.6000000015,171294.115,171760.30000000075,171310.795,171327.475,
トライアル,flow.Sequence,11_0,2023-01-12T14:17:35.639Z,,,d,,,270,1833.8850000014936,completion,eR.jpg,,,171793.8999999985,171793.6000000015,170422.69999999925,170423.80000000075,169959.715,171327.475,
空白時間1 (0.5秒),canvas.Screen,11_1_0,2023-01-12T14:17:35.657Z,,,d,,,315,16.679999999993015,timeout,eR.jpg,,,171812.19999999925,171812,171793.6000000015,171794.19999999925,171327.475,171344.155,
注視(1秒),canvas.Screen,11_1_1,2023-01-12T14:17:36.283Z,,,d,,,315,617.1600000000035,timeout,eR.jpg,,,172437.19999999925,172436.8999999985,171812,171812.30000000075,171344.155,171961.315,
空白時間2 (0.5秒),canvas.Screen,11_1_2,2023-01-12T14:17:36.285Z,,,d,,,315,16.679999999993015,timeout,eR.jpg,,,172439.30000000075,172439.19999999925,172436.8999999985,172437.3999999985,171961.315,171977.995,
刺激提示,canvas.Screen,11_1_3,2023-01-12T14:17:37.063Z,,,d,true,d,315,1234.8050000007497,response,eR.jpg,d,keypress(j),173217.19999999925,173212.80000000075,172439.19999999925,172439.3999999985,171977.995,172795.315,
フィードバック(0.5秒),canvas.Screen,11_1_4,2023-01-12T14:17:37.322Z,,,d,,,315,215.98099999999977,timeout,eR.jpg,,,173476.5,173476.1000000015,172778.635,173218.5,172795.315,173011.296,
トライアル,flow.Sequence,11_1,2023-01-12T14:17:37.322Z,,,d,,,315,2148.6250000014843,completion,eR.jpg,,,173476.8999999985,173476.1000000015,171793.6000000015,171794,171327.475,173011.296,
空白時間1 (0.5秒),canvas.Screen,11_2_0,2023-01-12T14:17:37.554Z,,,d,,,135,233.51999999998952,timeout,eR.jpg,,,173708.5,173708.19999999925,173476.1000000015,173477.1000000015,173011.296,173244.816,
注視(1秒),canvas.Screen,11_2_1,2023-01-12T14:17:38.180Z,,,d,,,135,617.1600000000035,timeout,eR.jpg,,,174335.19999999925,174334.80000000075,173708.19999999925,173708.80000000075,173244.816,173861.976,
空白時間2 (0.5秒),canvas.Screen,11_2_2,2023-01-12T14:17:38.183Z,,,d,,,135,16.679999999993015,timeout,eR.jpg,,,174337.30000000075,174337.1000000015,174334.80000000075,174335.3999999985,173861.976,173878.656,
刺激提示,canvas.Screen,11_2_3,2023-01-12T14:17:38.900Z,,,d,false,d,135,1168.144000000757,response,eR.jpg,b,keypress(f),175054.3999999985,175046.80000000075,174337.1000000015,174337.3999999985,173878.656,174629.256,
フィードバック(0.5秒),canvas.Screen,11_2_4,2023-01-12T14:17:38.955Z,,,d,,,135,16.679999999993015,timeout,eR.jpg,,,175109.80000000075,175109.69999999925,174612.576,175056.69999999925,174629.256,174645.936,
トライアル,flow.Sequence,11_2,2023-01-12T14:17:38.955Z,,,d,,,135,2098.403999999253,completion,eR.jpg,,,175109.8999999985,175109.69999999925,173476.1000000015,173477,173011.296,174645.936,
空白時間1 (0.5秒),canvas.Screen,11_3_0,2023-01-12T14:17:38.968Z,,,b,,,45,33.360000000015134,timeout,e.jpg,,,175122.8999999985,175122.80000000075,175109.69999999925,175112,174645.936,174679.296,
注視(1秒),canvas.Screen,11_3_1,2023-01-12T14:17:39.620Z,,,b,,,45,633.8399999999965,timeout,e.jpg,,,175775.1000000015,175774.80000000075,175122.80000000075,175123,174679.296,175313.136,
空白時間2 (0.5秒),canvas.Screen,11_3_2,2023-01-12T14:17:39.835Z,,,b,,,45,200.1600000000035,timeout,e.jpg,,,175989.8999999985,175989.6000000015,175774.80000000075,175775.3999999985,175313.136,175513.296,
刺激提示,canvas.Screen,11_3_3,2023-01-12T14:17:40.439Z,,,b,true,b,45,1040.9039999992528,response,e.jpg,b,keypress(f),176593.6000000015,176554.19999999925,175989.6000000015,175990.1000000015,175513.296,176163.816,
フィードバック(0.5秒),canvas.Screen,11_3_4,2023-01-12T14:17:40.689Z,,,b,,,45,216.8399999999965,timeout,e.jpg,,,176843.80000000075,176843.5,176130.456,176594.3999999985,176163.816,176380.656,
トライアル,flow.Sequence,11_3,2023-01-12T14:17:40.689Z,,,b,,,45,2197.564000000013,completion,e.jpg,,,176843.8999999985,176843.5,175109.69999999925,175110,174645.936,176380.656,
空白時間1 (0.5秒),canvas.Screen,11_4_0,2023-01-12T14:17:40.908Z,,,b,,,90,216.8400000000256,timeout,e.jpg,,,177063,177062.80000000075,176843.5,176844.1000000015,176380.656,176597.496,
注視(1秒),canvas.Screen,11_4_1,2023-01-12T14:17:41.559Z,,,b,,,90,650.5199999999895,timeout,e.jpg,,,177714,177713.69999999925,177062.80000000075,177063.19999999925,176597.496,177248.016,
空白時間2 (0.5秒),canvas.Screen,11_4_2,2023-01-12T14:17:41.600Z,,,b,,,90,33.35999999998603,timeout,e.jpg,,,177754.30000000075,177754.1000000015,177713.69999999925,177714.30000000075,177248.016,177281.376,
刺激提示,canvas.Screen,11_4_3,2023-01-12T14:17:42.193Z,,,b,true,b,90,1061.7240000015008,response,e.jpg,b,keypress(f),178348.1000000015,178343.1000000015,177754.1000000015,177754.30000000075,177281.376,177898.536,
フィードバック(0.5秒),canvas.Screen,11_4_4,2023-01-12T14:17:42.423Z,,,b,,,90,216.8399999999965,timeout,e.jpg,,,178578.19999999925,178577.80000000075,177881.856,178349,177898.536,178115.376,
トライアル,flow.Sequence,11_4,2023-01-12T14:17:42.424Z,,,b,,,90,2197.144000000757,completion,e.jpg,,,178578.5,178577.80000000075,176843.5,176844.1000000015,176380.656,178115.376,
空白時間1 (0.5秒),canvas.Screen,11_5_0,2023-01-12T14:17:42.644Z,,,b,,,135,216.8399999999965,timeout,e.jpg,,,178799.1000000015,178798.80000000075,178577.80000000075,178578.69999999925,178115.376,178332.216,
注視(1秒),canvas.Screen,11_5_1,2023-01-12T14:17:43.271Z,,,b,,,135,617.1600000000035,timeout,e.jpg,,,179426.1000000015,179425.6000000015,178798.80000000075,178799.30000000075,178332.216,178949.376,
空白時間2 (0.5秒),canvas.Screen,11_5_2,2023-01-12T14:17:43.274Z,,,b,,,135,16.68000000002212,timeout,e.jpg,,,179428.6000000015,179428.6000000015,179425.6000000015,179426.30000000075,178949.376,178966.056,
刺激提示,canvas.Screen,11_5_3,2023-01-12T14:17:43.846Z,,,b,true,b,135,1030.4439999999886,response,e.jpg,b,keypress(f),180000.69999999925,179996.5,179428.6000000015,179428.80000000075,178966.056,179599.896,
フィードバック(0.5秒),canvas.Screen,11_5_4,2023-01-12T14:17:43.928Z,,,b,,,135,16.679999999993015,timeout,e.jpg,,,180082.8999999985,180082.5,179583.216,180001.80000000075,179599.896,179616.576,
トライアル,flow.Sequence,11_5,2023-01-12T14:17:43.930Z,,,b,,,135,1967.1240000000107,completion,e.jpg,,,180084.5,180082.5,178577.80000000075,178578.69999999925,178115.376,179616.576,
空白時間1 (0.5秒),canvas.Screen,11_6_0,2023-01-12T14:17:44.136Z,,,d,,,90,200.1600000000035,timeout,eR.jpg,,,180291.1000000015,180290.8999999985,180082.5,180084.6000000015,179616.576,179816.736,
注視(1秒),canvas.Screen,11_6_1,2023-01-12T14:17:44.754Z,,,d,,,90,650.5199999999895,timeout,eR.jpg,,,180908.3999999985,180908.19999999925,180290.8999999985,180291.1000000015,179816.736,180467.256,
空白時間2 (0.5秒),canvas.Screen,11_6_2,2023-01-12T14:17:44.789Z,,,d,,,90,16.679999999993015,timeout,eR.jpg,,,180944.1000000015,180944,180908.19999999925,180908.5,180467.256,180483.936,
刺激提示,canvas.Screen,11_6_3,2023-01-12T14:17:45.357Z,,,d,true,d,90,1020.564000000013,response,eR.jpg,d,keypress(j),181512.1000000015,181504.5,180944,180944.19999999925,180483.936,181084.416,
フィードバック(0.5秒),canvas.Screen,11_6_4,2023-01-12T14:17:45.611Z,,,d,,,90,216.8399999999965,timeout,eR.jpg,,,181765.8999999985,181765.6000000015,181067.736,181514.8999999985,181084.416,181301.256,
トライアル,flow.Sequence,11_6,2023-01-12T14:17:45.612Z,,,d,,,90,2149.024000001489,completion,eR.jpg,,,181766.30000000075,181765.6000000015,180082.5,180084.6000000015,179616.576,181301.256,
空白時間1 (0.5秒),canvas.Screen,11_7_0,2023-01-12T14:17:45.825Z,,,b,,,225,216.8399999999965,timeout,e.jpg,,,181980,181979.8999999985,181765.6000000015,181766.3999999985,181301.256,181518.096,
注視(1秒),canvas.Screen,11_7_1,2023-01-12T14:17:46.483Z,,,b,,,225,650.5200000000186,timeout,e.jpg,,,182637.8999999985,182637.69999999925,181979.8999999985,181980.1000000015,181518.096,182168.616,
空白時間2 (0.5秒),canvas.Screen,11_7_2,2023-01-12T14:17:46.516Z,,,b,,,225,33.35999999998603,timeout,e.jpg,,,182670.69999999925,182670.69999999925,182637.69999999925,182638,182168.616,182201.976,
刺激提示,canvas.Screen,11_7_3,2023-01-12T14:17:47.155Z,,,b,true,b,225,1102.2239999992598,response,e.jpg,b,keypress(f),183309.8999999985,183304.19999999925,182670.69999999925,182670.80000000075,182201.976,182852.496,
フィードバック(0.5秒),canvas.Screen,11_7_4,2023-01-12T14:17:47.376Z,,,b,,,225,215.93999999997322,timeout,e.jpg,,,183530.5,183530.19999999925,182835.816,183311.3999999985,182852.496,183068.436,
トライアル,flow.Sequence,11_7,2023-01-12T14:17:47.376Z,,,b,,,225,2228.943999999261,completion,e.jpg,,,183530.8999999985,183530.19999999925,181765.6000000015,181766.3999999985,181301.256,183068.436,
空白時間1 (0.5秒),canvas.Screen,11_8_0,2023-01-12T14:17:47.596Z,,,d,,,45,216.8400000000256,timeout,eR.jpg,,,183751.1000000015,183750.80000000075,183530.19999999925,183531.1000000015,183068.436,183285.276,
注視(1秒),canvas.Screen,11_8_1,2023-01-12T14:17:48.224Z,,,d,,,45,617.1599999999744,timeout,eR.jpg,,,184378.6000000015,184377.8999999985,183750.80000000075,183751.30000000075,183285.276,183902.436,
空白時間2 (0.5秒),canvas.Screen,11_8_2,2023-01-12T14:17:48.226Z,,,d,,,45,33.360000000015134,timeout,eR.jpg,,,184380.6000000015,184380.5,184377.8999999985,184378.80000000075,183902.436,183935.796,
刺激提示,canvas.Screen,11_8_3,2023-01-12T14:17:48.774Z,,,d,true,d,45,988.304000001488,response,eR.jpg,d,keypress(j),184928.30000000075,184924.1000000015,184380.5,184380.80000000075,183935.796,184469.556,
フィードバック(0.5秒),canvas.Screen,11_8_4,2023-01-12T14:17:48.995Z,,,d,,,45,216.8399999999965,timeout,eR.jpg,,,185150.19999999925,185149.8999999985,184452.876,184929.19999999925,184469.556,184686.396,
トライアル,flow.Sequence,11_8,2023-01-12T14:17:48.996Z,,,d,,,45,2081.463999998523,completion,eR.jpg,,,185150.5,185149.8999999985,183530.19999999925,183531,183068.436,184686.396,
空白時間1 (0.5秒),canvas.Screen,11_9_0,2023-01-12T14:17:49.210Z,,,b,,,315,216.8399999999965,timeout,e.jpg,,,185364.8999999985,185364.6000000015,185149.8999999985,185150.69999999925,184686.396,184903.236,
注視(1秒),canvas.Screen,11_9_1,2023-01-12T14:17:49.843Z,,,b,,,315,617.1600000000035,timeout,e.jpg,,,185997.30000000075,185997.19999999925,185364.6000000015,185365.1000000015,184903.236,185520.396,
空白時間2 (0.5秒),canvas.Screen,11_9_2,2023-01-12T14:17:49.844Z,,,b,,,315,16.679999999993015,timeout,e.jpg,,,185998.80000000075,185998.69999999925,185997.19999999925,185997.5,185520.396,185537.076,
刺激提示,canvas.Screen,11_9_3,2023-01-12T14:17:50.307Z,,,b,true,b,315,917.4239999999991,response,e.jpg,b,keypress(f),186462.1000000015,186454.5,185998.69999999925,185998.8999999985,185537.076,186037.476,
フィードバック(0.5秒),canvas.Screen,11_9_4,2023-01-12T14:17:50.362Z,,,b,,,315,16.679999999993015,timeout,e.jpg,,,186516.6000000015,186516.6000000015,186020.796,186464.6000000015,186037.476,186054.156,
トライアル,flow.Sequence,11_9,2023-01-12T14:17:50.362Z,,,b,,,315,1830.2040000014822,completion,e.jpg,,,186516.80000000075,186516.6000000015,185149.8999999985,185150.6000000015,184686.396,186054.156,
空白時間1 (0.5秒),canvas.Screen,11_10_0,2023-01-12T14:17:50.580Z,,,d,,,0,216.8400000000256,timeout,eR.jpg,,,186734.8999999985,186734.6000000015,186516.6000000015,186516.8999999985,186054.156,186270.996,
注視(1秒),canvas.Screen,11_10_1,2023-01-12T14:17:51.207Z,,,d,,,0,617.1599999999744,timeout,eR.jpg,,,187361.8999999985,187361.69999999925,186734.6000000015,186735.19999999925,186270.996,186888.156,
空白時間2 (0.5秒),canvas.Screen,11_10_2,2023-01-12T14:17:51.210Z,,,d,,,0,16.68000000002212,timeout,eR.jpg,,,187365,187364.69999999925,187361.69999999925,187362.19999999925,186888.156,186904.836,
刺激提示,canvas.Screen,11_10_3,2023-01-12T14:17:51.927Z,,,d,true,d,0,1169.6639999999898,response,eR.jpg,d,keypress(j),188082.19999999925,188074.5,187364.69999999925,187365.1000000015,186904.836,187622.076,
フィードバック(0.5秒),canvas.Screen,11_10_4,2023-01-12T14:17:51.968Z,,,d,,,0,33.35999999998603,timeout,eR.jpg,,,188122.80000000075,188122.69999999925,187605.396,188083.80000000075,187622.076,187655.436,
トライアル,flow.Sequence,11_10,2023-01-12T14:17:51.968Z,,,d,,,0,2068.543999999267,completion,eR.jpg,,,188123,188122.69999999925,186516.6000000015,186516.8999999985,186054.156,187655.436,
空白時間1 (0.5秒),canvas.Screen,11_11_0,2023-01-12T14:17:51.994Z,,,b,,,0,33.360000000015134,timeout,e.jpg,,,188148.5,188148.3999999985,188122.69999999925,188123,187655.436,187688.796,
注視(1秒),canvas.Screen,11_11_1,2023-01-12T14:17:52.624Z,,,b,,,0,617.1600000000035,timeout,e.jpg,,,188778.19999999925,188777.8999999985,188148.3999999985,188148.5,187688.796,188305.956,
空白時間2 (0.5秒),canvas.Screen,11_11_2,2023-01-12T14:17:52.856Z,,,b,,,0,233.51999999998952,timeout,e.jpg,,,189010.5,189010.19999999925,188777.8999999985,188778.5,188305.956,188539.476,
刺激提示,canvas.Screen,11_11_3,2023-01-12T14:17:53.312Z,,,b,true,b,0,918.82400000075,response,e.jpg,b,keypress(f),189466.3999999985,189458.30000000075,189010.19999999925,189010.80000000075,188539.476,189006.516,
フィードバック(0.5秒),canvas.Screen,11_11_4,2023-01-12T14:17:53.529Z,,,b,,,0,200.1600000000035,timeout,e.jpg,,,189683.8999999985,189683.69999999925,188989.836,189467.8999999985,189006.516,189206.676,
トライアル,flow.Sequence,11_11,2023-01-12T14:17:53.530Z,,,b,,,0,2028.263999999268,completion,e.jpg,,,189684.30000000075,189683.69999999925,188122.69999999925,188123,187655.436,189206.676,
空白時間1 (0.5秒),canvas.Screen,11_12_0,2023-01-12T14:17:53.531Z,,,d,,,180,33.35999999998603,timeout,eR.jpg,,,189686.19999999925,189686.1000000015,189683.69999999925,189684.5,189206.676,189240.036,
注視(1秒),canvas.Screen,11_12_1,2023-01-12T14:17:54.179Z,,,d,,,180,617.1600000000035,timeout,eR.jpg,,,190334,190333.69999999925,189686.1000000015,189686.3999999985,189240.036,189857.196,
空白時間2 (0.5秒),canvas.Screen,11_12_2,2023-01-12T14:17:54.182Z,,,d,,,180,33.360000000015134,timeout,eR.jpg,,,190337,190336.80000000075,190333.69999999925,190334.30000000075,189857.196,189890.556,
刺激提示,canvas.Screen,11_12_3,2023-01-12T14:17:55.247Z,,,d,true,d,180,1502.6439999992435,response,eR.jpg,d,keypress(j),191401.3999999985,191393.19999999925,190336.80000000075,190337.19999999925,189890.556,190941.396,
フィードバック(0.5秒),canvas.Screen,11_12_4,2023-01-12T14:17:55.468Z,,,d,,,180,216.8399999999965,timeout,eR.jpg,,,191622.69999999925,191622.3999999985,190924.716,191402.80000000075,190941.396,191158.236,
トライアル,flow.Sequence,11_12,2023-01-12T14:17:55.468Z,,,d,,,180,2415.723999998503,completion,eR.jpg,,,191623,191622.3999999985,189683.69999999925,189684.5,189206.676,191158.236,
空白時間1 (0.5秒),canvas.Screen,11_13_0,2023-01-12T14:17:55.503Z,,,b,,,270,33.35999999998603,timeout,e.jpg,,,191657.5,191657.3999999985,191622.3999999985,191623.19999999925,191158.236,191191.596,
注視(1秒),canvas.Screen,11_13_1,2023-01-12T14:17:56.130Z,,,b,,,270,617.1600000000035,timeout,e.jpg,,,192284.5,192284.19999999925,191657.3999999985,191657.6000000015,191191.596,191808.756,
空白時間2 (0.5秒),canvas.Screen,11_13_2,2023-01-12T14:17:56.132Z,,,b,,,270,16.679999999993015,timeout,e.jpg,,,192286.69999999925,192286.5,192284.19999999925,192284.69999999925,191808.756,191825.436,
刺激提示,canvas.Screen,11_13_3,2023-01-12T14:17:56.618Z,,,b,true,b,270,940.3640000007581,response,e.jpg,b,keypress(f),192772.69999999925,192765.80000000075,192286.5,192286.80000000075,191825.436,192342.516,
フィードバック(0.5秒),canvas.Screen,11_13_4,2023-01-12T14:17:56.671Z,,,b,,,270,16.679999999993015,timeout,e.jpg,,,192826.1000000015,192826.1000000015,192325.836,192774.5,192342.516,192359.196,
トライアル,flow.Sequence,11_13,2023-01-12T14:17:56.672Z,,,b,,,270,1667.8640000014857,completion,e.jpg,,,192826.30000000075,192826.1000000015,191622.3999999985,191623.1000000015,191158.236,192359.196,
空白時間1 (0.5秒),canvas.Screen,11_14_0,2023-01-12T14:17:56.682Z,,,d,,,225,16.679999999993015,timeout,eR.jpg,,,192837.1000000015,192837,192826.1000000015,192826.3999999985,192359.196,192375.876,
注視(1秒),canvas.Screen,11_14_1,2023-01-12T14:17:57.314Z,,,d,,,225,617.1600000000035,timeout,eR.jpg,,,193468.5,193468.19999999925,192837,192837.30000000075,192375.876,192993.036,
空白時間2 (0.5秒),canvas.Screen,11_14_2,2023-01-12T14:17:57.316Z,,,d,,,225,33.360000000015134,timeout,eR.jpg,,,193470.6000000015,193470.30000000075,193468.19999999925,193468.69999999925,192993.036,193026.396,
刺激提示,canvas.Screen,11_14_3,2023-01-12T14:17:57.946Z,,,d,true,d,225,1067.003999998502,response,eR.jpg,d,keypress(j),194100.8999999985,194093.3999999985,193470.30000000075,193470.6000000015,193026.396,193642.741,
フィードバック(0.5秒),canvas.Screen,11_14_4,2023-01-12T14:17:58.167Z,,,d,,,225,216.8399999999965,timeout,eR.jpg,,,194322,194321.69999999925,193626.061,194102.19999999925,193642.741,193859.581,
トライアル,flow.Sequence,11_14,2023-01-12T14:17:58.168Z,,,d,,,225,1962.5039999992587,completion,eR.jpg,,,194322.3999999985,194321.69999999925,192826.1000000015,192826.3999999985,192359.196,193859.581,
空白時間1 (0.5秒),canvas.Screen,11_15_0,2023-01-12T14:17:58.388Z,,,b,,,180,216.8399999999965,timeout,e.jpg,,,194542.5,194542.30000000075,194321.69999999925,194322.6000000015,193859.581,194076.421,
注視(1秒),canvas.Screen,11_15_1,2023-01-12T14:17:59.020Z,,,b,,,180,633.8399999999965,timeout,e.jpg,,,195175.19999999925,195174.8999999985,194542.30000000075,194542.80000000075,194076.421,194710.261,
空白時間2 (0.5秒),canvas.Screen,11_15_2,2023-01-12T14:17:59.235Z,,,b,,,180,216.8399999999965,timeout,e.jpg,,,195390.1000000015,195389.80000000075,195174.8999999985,195175.5,194710.261,194927.101,
刺激提示,canvas.Screen,11_15_3,2023-01-12T14:18:00.118Z,,,b,true,b,180,1337.5989999992598,response,e.jpg,b,keypress(f),196272.5,196264.69999999925,195389.80000000075,195390.30000000075,194927.101,195827.821,
フィードバック(0.5秒),canvas.Screen,11_15_4,2023-01-12T14:18:00.352Z,,,b,,,180,216.8399999999965,timeout,e.jpg,,,196507.1000000015,196506.80000000075,195811.141,196274.30000000075,195827.821,196044.661,
トライアル,flow.Sequence,11_15,2023-01-12T14:18:00.353Z,,,b,,,180,2647.2190000007395,completion,e.jpg,,,196507.3999999985,196506.80000000075,194321.69999999925,194322.6000000015,193859.581,196044.661,
タスクのセット,flow.Loop,11,2023-01-12T14:18:00.353Z,,,,,,,26547.08500000075,completion,,,,196507.6000000015,196506.80000000075,170422.69999999925,170423.69999999925,169959.715,196044.661,
空白時間1 (0.5秒),canvas.Screen,12_0_0,2023-01-12T14:18:00.576Z,,,d,,,225,216.8399999999965,timeout,eR.jpg,,,196730.8999999985,196730.69999999925,196506.80000000075,196507.69999999925,196044.661,196261.501,
注視(1秒),canvas.Screen,12_0_1,2023-01-12T14:18:01.203Z,,,d,,,225,633.8399999999965,timeout,eR.jpg,,,197358,197357.69999999925,196730.69999999925,196731.1000000015,196261.501,196895.341,
空白時間2 (0.5秒),canvas.Screen,12_0_2,2023-01-12T14:18:01.418Z,,,d,,,225,200.1600000000035,timeout,eR.jpg,,,197572.80000000075,197572.5,197357.69999999925,197358.30000000075,196895.341,197095.501,
刺激提示,canvas.Screen,12_0_3,2023-01-12T14:18:01.971Z,,,d,true,d,225,1025.1989999992657,response,eR.jpg,d,keypress(j),198125.80000000075,198120.69999999925,197572.5,197572.8999999985,197095.501,197695.981,
フィードバック(0.5秒),canvas.Screen,12_0_4,2023-01-12T14:18:02.024Z,,,d,,,225,16.679999999993015,timeout,eR.jpg,,,198178.8999999985,198178.80000000075,197679.301,198127.3999999985,197695.981,197712.661,
トライアル,flow.Sequence,12_0,2023-01-12T14:18:02.024Z,,,d,,,225,2134.1390000007523,completion,eR.jpg,,,198179,198178.80000000075,196506.80000000075,196507.69999999925,196044.661,197712.661,
空白時間1 (0.5秒),canvas.Screen,12_1_0,2023-01-12T14:18:02.035Z,,,b,,,225,16.679999999993015,timeout,e.jpg,,,198190.19999999925,198190.1000000015,198178.80000000075,198179.1000000015,197712.661,197729.341,
注視(1秒),canvas.Screen,12_1_1,2023-01-12T14:18:02.666Z,,,b,,,225,617.1600000000035,timeout,e.jpg,,,198820.8999999985,198820.69999999925,198190.1000000015,198190.30000000075,197729.341,198346.501,
空白時間2 (0.5秒),canvas.Screen,12_1_2,2023-01-12T14:18:02.668Z,,,b,,,225,33.360000000015134,timeout,e.jpg,,,198822.8999999985,198822.69999999925,198820.69999999925,198821.1000000015,198346.501,198379.861,
刺激提示,canvas.Screen,12_1_3,2023-01-12T14:18:03.223Z,,,b,true,b,225,989.7390000014857,response,e.jpg,b,keypress(f),199377.30000000075,199369.6000000015,198822.69999999925,198823.1000000015,198379.861,198930.301,
フィードバック(0.5秒),canvas.Screen,12_1_4,2023-01-12T14:18:03.456Z,,,b,,,225,216.8399999999965,timeout,e.jpg,,,199610.30000000075,199610.1000000015,198913.621,199379.69999999925,198930.301,199147.141,
トライアル,flow.Sequence,12_1,2023-01-12T14:18:03.456Z,,,b,,,225,1897.4390000014973,completion,e.jpg,,,199610.69999999925,199610.1000000015,198178.80000000075,198179.1000000015,197712.661,199147.141,
空白時間1 (0.5秒),canvas.Screen,12_2_0,2023-01-12T14:18:03.491Z,,,d,,,315,33.35999999998603,timeout,eR.jpg,,,199646.30000000075,199646.1000000015,199610.1000000015,199610.8999999985,199147.141,199180.501,
注視(1秒),canvas.Screen,12_2_1,2023-01-12T14:18:04.114Z,,,d,,,315,617.1600000000035,timeout,eR.jpg,,,200268.8999999985,200268.3999999985,199646.1000000015,199646.30000000075,199180.501,199797.661,
空白時間2 (0.5秒),canvas.Screen,12_2_2,2023-01-12T14:18:04.320Z,,,d,,,315,200.1600000000035,timeout,eR.jpg,,,200474.8999999985,200474.6000000015,200268.3999999985,200269.1000000015,199797.661,199997.821,
刺激提示,canvas.Screen,12_2_3,2023-01-12T14:18:04.901Z,,,d,true,d,315,1049.3789999992587,response,eR.jpg,d,keypress(j),201055.69999999925,201047.19999999925,200474.6000000015,200475.19999999925,199997.821,200631.661,
フィードバック(0.5秒),canvas.Screen,12_2_4,2023-01-12T14:18:04.956Z,,,d,,,315,16.679999999993015,timeout,eR.jpg,,,201110.80000000075,201110.69999999925,200614.981,201058.3999999985,200631.661,200648.341,
トライアル,flow.Sequence,12_2,2023-01-12T14:18:04.956Z,,,d,,,315,1963.5589999992517,completion,eR.jpg,,,201111,201110.69999999925,199610.1000000015,199610.8999999985,199147.141,200648.341,
空白時間1 (0.5秒),canvas.Screen,12_3_0,2023-01-12T14:18:04.969Z,,,d,,,180,16.68000000002212,timeout,eR.jpg,,,201123.8999999985,201123.80000000075,201110.69999999925,201111,200648.341,200665.021,
注視(1秒),canvas.Screen,12_3_1,2023-01-12T14:18:05.603Z,,,d,,,180,650.5199999999895,timeout,eR.jpg,,,201758.19999999925,201758,201123.80000000075,201123.8999999985,200665.021,201315.541,
空白時間2 (0.5秒),canvas.Screen,12_3_2,2023-01-12T14:18:05.639Z,,,d,,,180,16.679999999993015,timeout,eR.jpg,,,201794.1000000015,201793.8999999985,201758,201758.5,201315.541,201332.221,
刺激提示,canvas.Screen,12_3_3,2023-01-12T14:18:06.238Z,,,d,true,d,180,1052.5790000007546,response,eR.jpg,d,keypress(j),202392.6000000015,202384.80000000075,201793.8999999985,201794.1000000015,201332.221,201932.701,
フィードバック(0.5秒),canvas.Screen,12_3_4,2023-01-12T14:18:06.273Z,,,d,,,180,33.35999999998603,timeout,eR.jpg,,,202427.69999999925,202427.6000000015,201916.021,202394.19999999925,201932.701,201966.061,
トライアル,flow.Sequence,12_3,2023-01-12T14:18:06.273Z,,,d,,,180,1779.2590000015043,completion,eR.jpg,,,202427.8999999985,202427.6000000015,201110.69999999925,201111,200648.341,201966.061,
空白時間1 (0.5秒),canvas.Screen,12_4_0,2023-01-12T14:18:06.492Z,,,d,,,135,216.8400000000256,timeout,eR.jpg,,,202646.5,202646.1000000015,202427.6000000015,202428,201966.061,202182.901,
注視(1秒),canvas.Screen,12_4_1,2023-01-12T14:18:07.147Z,,,d,,,135,650.5199999999895,timeout,eR.jpg,,,203302.30000000075,203302,202646.1000000015,202646.6000000015,202182.901,202833.421,
空白時間2 (0.5秒),canvas.Screen,12_4_2,2023-01-12T14:18:07.356Z,,,d,,,135,200.1600000000035,timeout,eR.jpg,,,203511.1000000015,203510.8999999985,203302,203302.5,202833.421,203033.581,
刺激提示,canvas.Screen,12_4_3,2023-01-12T14:18:08.049Z,,,d,true,d,135,1162.5190000014845,response,eR.jpg,d,keypress(j),204203.8999999985,204196.1000000015,203510.8999999985,203511.30000000075,203033.581,203749.924,
フィードバック(0.5秒),canvas.Screen,12_4_4,2023-01-12T14:18:08.274Z,,,d,,,135,216.8399999999965,timeout,eR.jpg,,,204428.5,204428.19999999925,203733.244,204205.3999999985,203749.924,203966.764,
トライアル,flow.Sequence,12_4,2023-01-12T14:18:08.274Z,,,d,,,135,2462.138999999268,completion,eR.jpg,,,204428.8999999985,204428.19999999925,202427.6000000015,202427.8999999985,201966.061,203966.764,
空白時間1 (0.5秒),canvas.Screen,12_5_0,2023-01-12T14:18:08.309Z,,,b,,,135,33.360000000015134,timeout,e.jpg,,,204463.80000000075,204463.69999999925,204428.19999999925,204429,203966.764,204000.124,
注視(1秒),canvas.Screen,12_5_1,2023-01-12T14:18:08.935Z,,,b,,,135,617.1600000000035,timeout,e.jpg,,,205089.8999999985,205089.69999999925,204463.69999999925,204463.8999999985,204000.124,204617.284,
空白時間2 (0.5秒),canvas.Screen,12_5_2,2023-01-12T14:18:09.162Z,,,b,,,135,233.51999999998952,timeout,e.jpg,,,205316.69999999925,205316.5,205089.69999999925,205090.1000000015,204617.284,204850.804,
刺激提示,canvas.Screen,12_5_3,2023-01-12T14:18:09.759Z,,,b,true,b,135,1055.2960000014864,response,e.jpg,b,keypress(f),205913.69999999925,205906.1000000015,205316.5,205317,204850.804,205484.644,
フィードバック(0.5秒),canvas.Screen,12_5_4,2023-01-12T14:18:10.009Z,,,b,,,135,216.8399999999965,timeout,e.jpg,,,206164.30000000075,206163.8999999985,205467.964,205916.1000000015,205484.644,205701.484,
トライアル,flow.Sequence,12_5,2023-01-12T14:18:10.010Z,,,b,,,135,2197.1359999985143,completion,e.jpg,,,206164.6000000015,206163.8999999985,204428.19999999925,204429,203966.764,205701.484,
空白時間1 (0.5秒),canvas.Screen,12_6_0,2023-01-12T14:18:10.224Z,,,d,,,270,200.1600000000035,timeout,eR.jpg,,,206379,206378.69999999925,206163.8999999985,206164.80000000075,205701.484,205901.644,
注視(1秒),canvas.Screen,12_6_1,2023-01-12T14:18:10.839Z,,,d,,,270,617.1600000000035,timeout,eR.jpg,,,206994.30000000075,206994.1000000015,206378.69999999925,206379.1000000015,205901.644,206518.804,
空白時間2 (0.5秒),canvas.Screen,12_6_2,2023-01-12T14:18:10.875Z,,,d,,,270,33.35999999998603,timeout,eR.jpg,,,207029.80000000075,207029.80000000075,206994.1000000015,206994.5,206518.804,206552.164,
刺激提示,canvas.Screen,12_6_3,2023-01-12T14:18:11.446Z,,,d,true,d,270,1041.4360000015004,response,eR.jpg,d,keypress(j),207600.69999999925,207593.6000000015,207029.80000000075,207030,206552.164,207152.644,
フィードバック(0.5秒),canvas.Screen,12_6_4,2023-01-12T14:18:11.675Z,,,d,,,270,200.1600000000035,timeout,eR.jpg,,,207830.19999999925,207829.8999999985,207135.964,207602,207152.644,207352.804,
トライアル,flow.Sequence,12_6,2023-01-12T14:18:11.676Z,,,d,,,270,2128.415999998513,completion,eR.jpg,,,207830.6000000015,207829.8999999985,206163.8999999985,206164.80000000075,205701.484,207352.804,
空白時間1 (0.5秒),canvas.Screen,12_7_0,2023-01-12T14:18:11.678Z,,,b,,,0,33.35999999998603,timeout,e.jpg,,,207832.5,207832.30000000075,207829.8999999985,207830.80000000075,207352.804,207386.164,
注視(1秒),canvas.Screen,12_7_1,2023-01-12T14:18:12.331Z,,,b,,,0,633.8399999999965,timeout,e.jpg,,,208486.19999999925,208485.8999999985,207832.30000000075,207832.6000000015,207386.164,208020.004,
空白時間2 (0.5秒),canvas.Screen,12_7_2,2023-01-12T14:18:12.547Z,,,b,,,0,233.52000000001863,timeout,e.jpg,,,208701.3999999985,208700.3999999985,208485.8999999985,208486.5,208020.004,208253.524,
刺激提示,canvas.Screen,12_7_3,2023-01-12T14:18:13.168Z,,,b,true,b,0,1061.2760000007402,response,e.jpg,b,keypress(f),209322.69999999925,209314.80000000075,208700.3999999985,208701.69999999925,208253.524,208870.684,
フィードバック(0.5秒),canvas.Screen,12_7_4,2023-01-12T14:18:13.394Z,,,b,,,0,200.1600000000035,timeout,e.jpg,,,209548.5,209548.19999999925,208854.004,209324.1000000015,208870.684,209070.844,
トライアル,flow.Sequence,12_7,2023-01-12T14:18:13.394Z,,,b,,,0,2195.395999999251,completion,e.jpg,,,209548.80000000075,209548.19999999925,207829.8999999985,207830.69999999925,207352.804,209070.844,
空白時間1 (0.5秒),canvas.Screen,12_8_0,2023-01-12T14:18:13.396Z,,,b,,,270,50.039999999979045,timeout,e.jpg,,,209550.80000000075,209550.69999999925,209548.19999999925,209549,209070.844,209120.884,
注視(1秒),canvas.Screen,12_8_1,2023-01-12T14:18:14.056Z,,,b,,,270,617.1600000000035,timeout,e.jpg,,,210210.5,210210.1000000015,209550.69999999925,209551,209120.884,209738.044,
空白時間2 (0.5秒),canvas.Screen,12_8_2,2023-01-12T14:18:14.059Z,,,b,,,270,16.679999999993015,timeout,e.jpg,,,210213.5,210213.30000000075,210210.1000000015,210210.69999999925,209738.044,209754.724,
刺激提示,canvas.Screen,12_8_3,2023-01-12T14:18:14.518Z,,,b,true,b,270,910.1759999985225,response,e.jpg,b,keypress(f),210672.80000000075,210664.8999999985,210213.30000000075,210213.69999999925,209754.724,210221.764,
フィードバック(0.5秒),canvas.Screen,12_8_4,2023-01-12T14:18:14.554Z,,,b,,,270,16.679999999993015,timeout,e.jpg,,,210709,210708.80000000075,210205.084,210675.1000000015,210221.764,210238.444,
トライアル,flow.Sequence,12_8,2023-01-12T14:18:14.554Z,,,b,,,270,1637.9560000007332,completion,e.jpg,,,210709.1000000015,210708.80000000075,209548.19999999925,209549,209070.844,210238.444,
空白時間1 (0.5秒),canvas.Screen,12_9_0,2023-01-12T14:18:14.764Z,,,b,,,90,216.8400000000256,timeout,e.jpg,,,210918.3999999985,210918.19999999925,210708.80000000075,210709.19999999925,210238.444,210455.284,
注視(1秒),canvas.Screen,12_9_1,2023-01-12T14:18:15.395Z,,,b,,,90,617.1599999999744,timeout,e.jpg,,,211549.5,211548.8999999985,210918.19999999925,210918.6000000015,210455.284,211072.444,
空白時間2 (0.5秒),canvas.Screen,12_9_2,2023-01-12T14:18:15.430Z,,,b,,,90,50.04000000000815,timeout,e.jpg,,,211584.3999999985,211584.30000000075,211548.8999999985,211549.80000000075,211072.444,211122.484,
刺激提示,canvas.Screen,12_9_3,2023-01-12T14:18:15.935Z,,,b,true,b,90,959.8160000007483,response,e.jpg,b,keypress(f),212090.30000000075,212082.30000000075,211584.30000000075,211584.3999999985,211122.484,211639.564,
フィードバック(0.5秒),canvas.Screen,12_9_4,2023-01-12T14:18:15.972Z,,,b,,,90,16.679999999993015,timeout,e.jpg,,,212127.19999999925,212127.1000000015,211622.884,212092.30000000075,211639.564,211656.244,
トライアル,flow.Sequence,12_9,2023-01-12T14:18:15.972Z,,,b,,,90,1888.6560000015015,completion,e.jpg,,,212127.30000000075,212127.1000000015,210708.80000000075,210709.19999999925,210238.444,211656.244,
空白時間1 (0.5秒),canvas.Screen,12_10_0,2023-01-12T14:18:15.999Z,,,b,,,45,33.35999999998603,timeout,e.jpg,,,212154.1000000015,212154,212127.1000000015,212127.3999999985,211656.244,211689.604,
注視(1秒),canvas.Screen,12_10_1,2023-01-12T14:18:16.627Z,,,b,,,45,633.8399999999965,timeout,e.jpg,,,212781.80000000075,212781.5,212154,212154.1000000015,211689.604,212323.444,
空白時間2 (0.5秒),canvas.Screen,12_10_2,2023-01-12T14:18:16.668Z,,,b,,,45,16.68000000002212,timeout,e.jpg,,,212823,212822.8999999985,212781.5,212781.8999999985,212323.444,212340.124,
刺激提示,canvas.Screen,12_10_3,2023-01-12T14:18:17.095Z,,,b,true,b,45,900.9760000014794,response,e.jpg,b,keypress(f),213249.3999999985,213241.1000000015,212822.8999999985,212823,212340.124,212807.164,
フィードバック(0.5秒),canvas.Screen,12_10_4,2023-01-12T14:18:17.329Z,,,b,,,45,216.8399999999965,timeout,e.jpg,,,213484.30000000075,213484,212790.484,213251,212807.164,213024.004,
トライアル,flow.Sequence,12_10,2023-01-12T14:18:17.330Z,,,b,,,45,1827.755999999994,completion,e.jpg,,,213484.6000000015,213484,212127.1000000015,212127.3999999985,211656.244,213024.004,
空白時間1 (0.5秒),canvas.Screen,12_11_0,2023-01-12T14:18:17.544Z,,,d,,,45,200.1600000000035,timeout,eR.jpg,,,213698.5,213698.30000000075,213484,213484.80000000075,213024.004,213224.164,
注視(1秒),canvas.Screen,12_11_1,2023-01-12T14:18:18.171Z,,,d,,,45,632.948000000004,timeout,eR.jpg,,,214326.1000000015,214325.8999999985,213698.30000000075,213698.6000000015,213224.164,213857.112,
空白時間2 (0.5秒),canvas.Screen,12_11_2,2023-01-12T14:18:18.403Z,,,d,,,45,233.52000000001863,timeout,eR.jpg,,,214558.19999999925,214557.8999999985,214325.8999999985,214326.5,213857.112,214090.632,
刺激提示,canvas.Screen,12_11_3,2023-01-12T14:18:19.025Z,,,d,true,d,45,1085.2679999984975,response,eR.jpg,d,keypress(j),215180.1000000015,215175.8999999985,214557.8999999985,214558.6000000015,214090.632,214724.472,
フィードバック(0.5秒),canvas.Screen,12_11_4,2023-01-12T14:18:19.058Z,,,d,,,45,16.679999999993015,timeout,eR.jpg,,,215212.80000000075,215212.6000000015,214707.792,215181.1000000015,214724.472,214741.152,
トライアル,flow.Sequence,12_11,2023-01-12T14:18:19.058Z,,,d,,,45,2188.596000001504,completion,eR.jpg,,,215213,215212.6000000015,213484,213484.69999999925,213024.004,214741.152,
空白時間1 (0.5秒),canvas.Screen,12_12_0,2023-01-12T14:18:19.268Z,,,b,,,180,216.8399999999965,timeout,e.jpg,,,215423.1000000015,215422.80000000075,215212.6000000015,215213,214741.152,214957.992,
注視(1秒),canvas.Screen,12_12_1,2023-01-12T14:18:19.924Z,,,b,,,180,650.5199999999895,timeout,e.jpg,,,216079,216078.80000000075,215422.80000000075,215423.30000000075,214957.992,215608.512,
空白時間2 (0.5秒),canvas.Screen,12_12_2,2023-01-12T14:18:19.959Z,,,b,,,180,33.360000000015134,timeout,e.jpg,,,216114.19999999925,216114.1000000015,216078.80000000075,216079.30000000075,215608.512,215641.872,
刺激提示,canvas.Screen,12_12_3,2023-01-12T14:18:20.593Z,,,b,false,b,180,1098.0279999985069,response,e.jpg,d,keypress(j),216747.6000000015,216739.8999999985,216114.1000000015,216114.30000000075,215641.872,216292.392,
フィードバック(0.5秒),canvas.Screen,12_12_4,2023-01-12T14:18:20.619Z,,,b,,,180,16.679999999993015,timeout,e.jpg,,,216773.3999999985,216773.30000000075,216275.712,216749.3999999985,216292.392,216309.072,
トライアル,flow.Sequence,12_12,2023-01-12T14:18:20.619Z,,,b,,,180,2032.1480000007432,completion,e.jpg,,,216773.6000000015,216773.30000000075,215212.6000000015,215213,214741.152,216309.072,
空白時間1 (0.5秒),canvas.Screen,12_13_0,2023-01-12T14:18:20.841Z,,,b,,,315,216.8400000000256,timeout,e.jpg,,,216996.30000000075,216996,216773.30000000075,216773.6000000015,216309.072,216525.912,
注視(1秒),canvas.Screen,12_13_1,2023-01-12T14:18:21.468Z,,,b,,,315,633.8399999999965,timeout,e.jpg,,,217623.1000000015,217622.80000000075,216996,216996.5,216525.912,217159.752,
空白時間2 (0.5秒),canvas.Screen,12_13_2,2023-01-12T14:18:21.682Z,,,b,,,315,200.1600000000035,timeout,e.jpg,,,217837.3999999985,217837.1000000015,217622.80000000075,217623.3999999985,217159.752,217359.912,
刺激提示,canvas.Screen,12_13_3,2023-01-12T14:18:22.033Z,,,b,true,b,315,820.0879999999888,response,e.jpg,b,keypress(f),218187.6000000015,218180,217837.1000000015,217837.6000000015,217359.912,217760.232,
フィードバック(0.5秒),canvas.Screen,12_13_4,2023-01-12T14:18:22.096Z,,,b,,,315,16.68000000002212,timeout,e.jpg,,,218251.30000000075,218251.1000000015,217743.552,218189.8999999985,217760.232,217776.912,
トライアル,flow.Sequence,12_13,2023-01-12T14:18:22.097Z,,,b,,,315,1942.0280000015046,completion,e.jpg,,,218251.3999999985,218251.1000000015,216773.30000000075,216773.6000000015,216309.072,217776.912,
空白時間1 (0.5秒),canvas.Screen,12_14_0,2023-01-12T14:18:22.122Z,,,d,,,0,16.679999999993015,timeout,eR.jpg,,,218276.69999999925,218276.6000000015,218251.1000000015,218251.5,217776.912,217793.592,
注視(1秒),canvas.Screen,12_14_1,2023-01-12T14:18:22.740Z,,,d,,,0,633.8399999999965,timeout,eR.jpg,,,218894.6000000015,218894.30000000075,218276.6000000015,218276.69999999925,217793.592,218427.432,
空白時間2 (0.5秒),canvas.Screen,12_14_2,2023-01-12T14:18:22.954Z,,,d,,,0,216.8399999999965,timeout,eR.jpg,,,219109.30000000075,219109,218894.30000000075,218894.69999999925,218427.432,218644.272,
刺激提示,canvas.Screen,12_14_3,2023-01-12T14:18:23.675Z,,,d,true,d,0,1178.1279999985127,response,eR.jpg,d,keypress(j),219830.1000000015,219822.3999999985,219109,219109.5,218644.272,219411.552,
フィードバック(0.5秒),canvas.Screen,12_14_4,2023-01-12T14:18:23.740Z,,,d,,,0,16.679999999993015,timeout,eR.jpg,,,219895,219894.8999999985,219394.872,219832.80000000075,219411.552,219428.232,
トライアル,flow.Sequence,12_14,2023-01-12T14:18:23.740Z,,,d,,,0,2117.9879999984987,completion,eR.jpg,,,219895.19999999925,219894.8999999985,218251.1000000015,218251.5,217776.912,219428.232,
空白時間1 (0.5秒),canvas.Screen,12_15_0,2023-01-12T14:18:23.766Z,,,d,,,90,16.68000000002212,timeout,eR.jpg,,,219921.3999999985,219921.30000000075,219894.8999999985,219895.19999999925,219428.232,219444.912,
注視(1秒),canvas.Screen,12_15_1,2023-01-12T14:18:24.388Z,,,d,,,90,633.8399999999965,timeout,eR.jpg,,,220543.1000000015,220542.80000000075,219921.30000000075,219921.5,219444.912,220078.752,
空白時間2 (0.5秒),canvas.Screen,12_15_2,2023-01-12T14:18:24.626Z,,,d,,,90,233.51999999998952,timeout,eR.jpg,,,220781.19999999925,220780.8999999985,220542.80000000075,220543.30000000075,220078.752,220312.272,
刺激提示,canvas.Screen,12_15_3,2023-01-12T14:18:25.115Z,,,d,false,d,90,950.2280000000028,response,eR.jpg,b,keypress(f),221270.1000000015,221262.5,220780.8999999985,220781.5,220312.272,220812.672,
フィードバック(0.5秒),canvas.Screen,12_15_4,2023-01-12T14:18:25.151Z,,,d,,,90,16.68000000002212,timeout,eR.jpg,,,221305.5,221305.30000000075,220795.992,221272.30000000075,220812.672,220829.352,
トライアル,flow.Sequence,12_15,2023-01-12T14:18:25.151Z,,,d,,,90,1877.068000000756,completion,eR.jpg,,,221305.6000000015,221305.30000000075,219894.8999999985,219895.19999999925,219428.232,220829.352,
タスクのセット,flow.Loop,12,2023-01-12T14:18:25.151Z,,,,,,,25260.639000000752,completion,,,,221305.69999999925,221305.30000000075,196506.80000000075,196507.69999999925,196044.661,220829.352,
空白時間1 (0.5秒),canvas.Screen,13_0_0,2023-01-12T14:18:25.178Z,,,d,,,225,33.35999999998603,timeout,eR.jpg,,,221332.69999999925,221332.5,221305.30000000075,221305.8999999985,220829.352,220862.712,
注視(1秒),canvas.Screen,13_0_1,2023-01-12T14:18:25.801Z,,,d,,,225,617.1600000000035,timeout,eR.jpg,,,221956.5,221956.1000000015,221332.5,221332.80000000075,220862.712,221479.872,
空白時間2 (0.5秒),canvas.Screen,13_0_2,2023-01-12T14:18:25.805Z,,,d,,,225,16.679999999993015,timeout,eR.jpg,,,221959.5,221959.30000000075,221956.1000000015,221956.69999999925,221479.872,221496.552,
刺激提示,canvas.Screen,13_0_3,2023-01-12T14:18:26.466Z,,,d,true,d,225,1115.948000000004,response,eR.jpg,d,keypress(j),222621.1000000015,222612.5,221959.30000000075,221959.69999999925,221496.552,222163.752,
フィードバック(0.5秒),canvas.Screen,13_0_4,2023-01-12T14:18:26.494Z,,,d,,,225,16.679999999993015,timeout,eR.jpg,,,222648.69999999925,222648.69999999925,222147.072,222623,222163.752,222180.432,
トライアル,flow.Sequence,13_0,2023-01-12T14:18:26.494Z,,,d,,,225,1819.3479999992414,completion,eR.jpg,,,222648.8999999985,222648.69999999925,221305.30000000075,221305.8999999985,220829.352,222180.432,
空白時間1 (0.5秒),canvas.Screen,13_1_0,2023-01-12T14:18:26.504Z,,,b,,,90,16.679999999993015,timeout,e.jpg,,,222659.19999999925,222659.1000000015,222648.69999999925,222649,222180.432,222197.112,
注視(1秒),canvas.Screen,13_1_1,2023-01-12T14:18:27.139Z,,,b,,,90,650.5200000000186,timeout,e.jpg,,,223294.30000000075,223294.30000000075,222659.1000000015,222659.30000000075,222197.112,222847.632,
空白時間2 (0.5秒),canvas.Screen,13_1_2,2023-01-12T14:18:27.177Z,,,b,,,90,16.679999999993015,timeout,e.jpg,,,223332.1000000015,223332,223294.30000000075,223294.3999999985,222847.632,222864.312,
刺激提示,canvas.Screen,13_1_3,2023-01-12T14:18:27.692Z,,,b,true,b,90,974.5879999985045,response,e.jpg,b,keypress(f),223846.3999999985,223838.8999999985,223332,223332.19999999925,222864.312,223398.072,
フィードバック(0.5秒),canvas.Screen,13_1_4,2023-01-12T14:18:27.923Z,,,b,,,90,215.94900000002235,timeout,e.jpg,,,224078.3999999985,224078.1000000015,223381.392,223848.3999999985,223398.072,223614.021,
トライアル,flow.Sequence,13_1,2023-01-12T14:18:27.924Z,,,b,,,90,1897.6680000014894,completion,e.jpg,,,224078.80000000075,224078.1000000015,222648.69999999925,222648.8999999985,222180.432,223614.021,
空白時間1 (0.5秒),canvas.Screen,13_2_0,2023-01-12T14:18:28.138Z,,,b,,,315,216.8399999999965,timeout,e.jpg,,,224293.1000000015,224292.8999999985,224078.1000000015,224078.8999999985,223614.021,223830.861,
注視(1秒),canvas.Screen,13_2_1,2023-01-12T14:18:28.771Z,,,b,,,315,617.1600000000035,timeout,e.jpg,,,224926,224925.69999999925,224292.8999999985,224293.30000000075,223830.861,224448.021,
空白時間2 (0.5秒),canvas.Screen,13_2_2,2023-01-12T14:18:28.773Z,,,b,,,315,16.679999999993015,timeout,e.jpg,,,224928.1000000015,224927.8999999985,224925.69999999925,224926.19999999925,224448.021,224464.701,
刺激提示,canvas.Screen,13_2_3,2023-01-12T14:18:29.206Z,,,b,true,b,315,892.498999999254,response,e.jpg,b,keypress(f),225361.19999999925,225357.19999999925,224927.8999999985,224928.19999999925,224464.701,224965.101,
フィードバック(0.5秒),canvas.Screen,13_2_4,2023-01-12T14:18:29.491Z,,,b,,,315,216.8399999999965,timeout,e.jpg,,,225645.80000000075,225645.3999999985,224948.421,225362.30000000075,224965.101,225181.941,
トライアル,flow.Sequence,13_2,2023-01-12T14:18:29.491Z,,,b,,,315,2031.378999998502,completion,e.jpg,,,225646.19999999925,225645.3999999985,224078.1000000015,224078.8999999985,223614.021,225181.941,
空白時間1 (0.5秒),canvas.Screen,13_3_0,2023-01-12T14:18:29.721Z,,,d,,,45,216.8399999999965,timeout,eR.jpg,,,225876,225875.6000000015,225645.3999999985,225646.3999999985,225181.941,225398.781,
注視(1秒),canvas.Screen,13_3_1,2023-01-12T14:18:30.363Z,,,d,,,45,650.5200000000186,timeout,eR.jpg,,,226517.69999999925,226517.3999999985,225875.6000000015,225876.30000000075,225398.781,226049.301,
空白時間2 (0.5秒),canvas.Screen,13_3_2,2023-01-12T14:18:30.571Z,,,d,,,45,200.1600000000035,timeout,eR.jpg,,,226725.6000000015,226725.30000000075,226517.3999999985,226517.80000000075,226049.301,226249.461,
刺激提示,canvas.Screen,13_3_3,2023-01-12T14:18:31.112Z,,,d,true,d,45,1009.5389999999898,response,eR.jpg,d,keypress(j),227266.6000000015,227259,226725.30000000075,226725.80000000075,226249.461,226816.581,
フィードバック(0.5秒),canvas.Screen,13_3_4,2023-01-12T14:18:31.147Z,,,d,,,45,16.679999999993015,timeout,eR.jpg,,,227301.80000000075,227301.6000000015,226799.901,227268.5,226816.581,226833.261,
トライアル,flow.Sequence,13_3,2023-01-12T14:18:31.147Z,,,d,,,45,2119.6590000014985,completion,eR.jpg,,,227301.8999999985,227301.6000000015,225645.3999999985,225646.30000000075,225181.941,226833.261,
空白時間1 (0.5秒),canvas.Screen,13_4_0,2023-01-12T14:18:31.354Z,,,b,,,135,200.1600000000035,timeout,e.jpg,,,227509.1000000015,227508.8999999985,227301.6000000015,227302,226833.261,227033.421,
注視(1秒),canvas.Screen,13_4_1,2023-01-12T14:18:31.975Z,,,b,,,135,633.8399999999965,timeout,e.jpg,,,228130.1000000015,228129.69999999925,227508.8999999985,227509.30000000075,227033.421,227667.261,
空白時間2 (0.5秒),canvas.Screen,13_4_2,2023-01-12T14:18:32.209Z,,,b,,,135,233.51999999998952,timeout,e.jpg,,,228364.1000000015,228363.80000000075,228129.69999999925,228130.30000000075,227667.261,227900.781,
刺激提示,canvas.Screen,13_4_3,2023-01-12T14:18:32.687Z,,,b,true,b,135,933.2190000000119,response,e.jpg,b,keypress(f),228841.6000000015,228834,228363.80000000075,228364.30000000075,227900.781,228384.501,
フィードバック(0.5秒),canvas.Screen,13_4_4,2023-01-12T14:18:32.904Z,,,b,,,135,200.1600000000035,timeout,e.jpg,,,229059.19999999925,229058.8999999985,228367.821,228843.3999999985,228384.501,228584.661,
トライアル,flow.Sequence,13_4,2023-01-12T14:18:32.905Z,,,b,,,135,2225.6389999985113,completion,e.jpg,,,229059.6000000015,229058.8999999985,227301.6000000015,227302,226833.261,228584.661,
空白時間1 (0.5秒),canvas.Screen,13_5_0,2023-01-12T14:18:32.907Z,,,b,,,270,33.360000000015134,timeout,e.jpg,,,229061.5,229061.3999999985,229058.8999999985,229059.69999999925,228584.661,228618.021,
注視(1秒),canvas.Screen,13_5_1,2023-01-12T14:18:33.554Z,,,b,,,270,617.1600000000035,timeout,e.jpg,,,229709.30000000075,229709,229061.3999999985,229061.69999999925,228618.021,229235.181,
空白時間2 (0.5秒),canvas.Screen,13_5_2,2023-01-12T14:18:33.556Z,,,b,,,270,16.679999999993015,timeout,e.jpg,,,229711.3999999985,229711.19999999925,229709,229709.6000000015,229235.181,229251.861,
刺激提示,canvas.Screen,13_5_3,2023-01-12T14:18:34.003Z,,,b,true,b,270,898.3389999992505,response,e.jpg,b,keypress(f),230158.19999999925,230150.19999999925,229711.19999999925,229711.6000000015,229251.861,229752.261,
フィードバック(0.5秒),canvas.Screen,13_5_4,2023-01-12T14:18:34.274Z,,,b,,,270,200.1600000000035,timeout,e.jpg,,,230429.1000000015,230428.69999999925,229735.581,230160.80000000075,229752.261,229952.421,
トライアル,flow.Sequence,13_5,2023-01-12T14:18:34.275Z,,,b,,,270,1844.0389999992622,completion,e.jpg,,,230429.5,230428.69999999925,229058.8999999985,229059.69999999925,228584.661,229952.421,
空白時間1 (0.5秒),canvas.Screen,13_6_0,2023-01-12T14:18:34.277Z,,,b,,,225,16.679999999993015,timeout,e.jpg,,,230432.3999999985,230432.19999999925,230428.69999999925,230429.69999999925,229952.421,229969.101,
注視(1秒),canvas.Screen,13_6_1,2023-01-12T14:18:34.907Z,,,b,,,225,617.1600000000035,timeout,e.jpg,,,231061.80000000075,231061.5,230432.19999999925,230432.6000000015,229969.101,230586.261,
空白時間2 (0.5秒),canvas.Screen,13_6_2,2023-01-12T14:18:34.910Z,,,b,,,225,16.679999999993015,timeout,e.jpg,,,231065.30000000075,231065,231061.5,231062,230586.261,230602.941,
刺激提示,canvas.Screen,13_6_3,2023-01-12T14:18:35.567Z,,,b,true,b,225,1111.0590000000084,response,e.jpg,b,keypress(f),231721.80000000075,231714,231065,231065.3999999985,230602.941,231270.141,
フィードバック(0.5秒),canvas.Screen,13_6_4,2023-01-12T14:18:35.795Z,,,b,,,225,216.8399999999965,timeout,e.jpg,,,231949.69999999925,231949.6000000015,231253.461,231723.8999999985,231270.141,231486.981,
トライアル,flow.Sequence,13_6,2023-01-12T14:18:35.795Z,,,b,,,225,1997.179000001488,completion,e.jpg,,,231949.8999999985,231949.6000000015,230428.69999999925,230429.69999999925,229952.421,231486.981,
空白時間1 (0.5秒),canvas.Screen,13_7_0,2023-01-12T14:18:36.010Z,,,d,,,135,200.1600000000035,timeout,eR.jpg,,,232164.80000000075,232164.3999999985,231949.6000000015,231950.1000000015,231486.981,231687.141,
注視(1秒),canvas.Screen,13_7_1,2023-01-12T14:18:36.625Z,,,d,,,135,617.1600000000035,timeout,eR.jpg,,,232780.1000000015,232779.80000000075,232164.3999999985,232165,231687.141,232304.301,
空白時間2 (0.5秒),canvas.Screen,13_7_2,2023-01-12T14:18:36.628Z,,,d,,,135,16.679999999993015,timeout,eR.jpg,,,232783.19999999925,232783.1000000015,232779.80000000075,232780.30000000075,232304.301,232320.981,
刺激提示,canvas.Screen,13_7_3,2023-01-12T14:18:37.229Z,,,d,true,d,135,1057.8190000007453,response,eR.jpg,d,keypress(j),233384,233378.80000000075,232783.1000000015,232783.3999999985,232320.981,232938.141,
フィードバック(0.5秒),canvas.Screen,13_7_4,2023-01-12T14:18:37.266Z,,,d,,,135,16.679999999993015,timeout,eR.jpg,,,233420.5,233420,232921.461,233385.1000000015,232938.141,232954.821,
トライアル,flow.Sequence,13_7,2023-01-12T14:18:37.266Z,,,d,,,135,1933.0190000000002,completion,eR.jpg,,,233420.8999999985,233420,231949.6000000015,231950.1000000015,231486.981,232954.821,
空白時間1 (0.5秒),canvas.Screen,13_8_0,2023-01-12T14:18:37.483Z,,,d,,,0,216.8399999999965,timeout,eR.jpg,,,233638.1000000015,233637.80000000075,233420,233420.8999999985,232954.821,233171.661,
注視(1秒),canvas.Screen,13_8_1,2023-01-12T14:18:38.140Z,,,d,,,0,650.5200000000186,timeout,eR.jpg,,,234295.1000000015,234294.80000000075,233637.80000000075,233638.19999999925,233171.661,233822.181,
空白時間2 (0.5秒),canvas.Screen,13_8_2,2023-01-12T14:18:38.142Z,,,d,,,0,16.679999999993015,timeout,eR.jpg,,,234297.30000000075,234297.19999999925,234294.80000000075,234295.5,233822.181,233838.861,
刺激提示,canvas.Screen,13_8_3,2023-01-12T14:18:38.728Z,,,d,true,d,0,1036.2390000014857,response,eR.jpg,d,keypress(j),234882.69999999925,234875.1000000015,234297.19999999925,234297.3999999985,233838.861,234455.141,
フィードバック(0.5秒),canvas.Screen,13_8_4,2023-01-12T14:18:38.795Z,,,d,,,0,16.679999999993015,timeout,eR.jpg,,,234949.80000000075,234949.69999999925,234438.461,234885.30000000075,234455.141,234471.821,
トライアル,flow.Sequence,13_8,2023-01-12T14:18:38.795Z,,,d,,,0,1994.8789999992587,completion,eR.jpg,,,234949.8999999985,234949.69999999925,233420,233420.8999999985,232954.821,234471.821,
空白時間1 (0.5秒),canvas.Screen,13_9_0,2023-01-12T14:18:38.820Z,,,d,,,90,50.04000000000815,timeout,eR.jpg,,,234975.3999999985,234975.30000000075,234949.69999999925,234949.8999999985,234471.821,234521.861,
注視(1秒),canvas.Screen,13_9_1,2023-01-12T14:18:39.458Z,,,d,,,90,617.1600000000035,timeout,eR.jpg,,,235612.8999999985,235612.6000000015,234975.30000000075,234975.5,234521.861,235139.021,
空白時間2 (0.5秒),canvas.Screen,13_9_2,2023-01-12T14:18:39.460Z,,,d,,,90,16.679999999993015,timeout,eR.jpg,,,235615.1000000015,235614.8999999985,235612.6000000015,235613.19999999925,235139.021,235155.701,
刺激提示,canvas.Screen,13_9_3,2023-01-12T14:18:39.898Z,,,d,false,d,90,889.498999999254,response,eR.jpg,b,keypress(f),236053,236045.19999999925,235614.8999999985,235615.30000000075,235155.701,235606.061,
フィードバック(0.5秒),canvas.Screen,13_9_4,2023-01-12T14:18:39.934Z,,,d,,,90,16.68000000002212,timeout,eR.jpg,,,236088.80000000075,236088.80000000075,235589.381,236055.1000000015,235606.061,235622.741,
トライアル,flow.Sequence,13_9,2023-01-12T14:18:39.934Z,,,d,,,90,1616.9790000007488,completion,eR.jpg,,,236088.8999999985,236088.80000000075,234949.69999999925,234949.8999999985,234471.821,235622.741,
空白時間1 (0.5秒),canvas.Screen,13_10_0,2023-01-12T14:18:40.143Z,,,b,,,180,200.1600000000035,timeout,e.jpg,,,236298,236297.69999999925,236088.80000000075,236089.1000000015,235622.741,235822.901,
注視(1秒),canvas.Screen,13_10_1,2023-01-12T14:18:40.764Z,,,b,,,180,633.8399999999965,timeout,e.jpg,,,236919,236918.69999999925,236297.69999999925,236298.19999999925,235822.901,236456.741,
空白時間2 (0.5秒),canvas.Screen,13_10_2,2023-01-12T14:18:40.979Z,,,b,,,180,200.1600000000035,timeout,e.jpg,,,237133.80000000075,237133.5,236918.69999999925,236919.19999999925,236456.741,236656.901,
刺激提示,canvas.Screen,13_10_3,2023-01-12T14:18:41.698Z,,,b,false,b,180,1188.2989999992424,response,e.jpg,d,keypress(j),237853.1000000015,237845.19999999925,237133.5,237134,236656.901,237407.501,
フィードバック(0.5秒),canvas.Screen,13_10_4,2023-01-12T14:18:41.931Z,,,b,,,180,216.8399999999965,timeout,e.jpg,,,238085.80000000075,238085.5,237390.821,237856,237407.501,237624.341,
トライアル,flow.Sequence,13_10,2023-01-12T14:18:41.931Z,,,b,,,180,2462.758999999991,completion,e.jpg,,,238086.19999999925,238085.5,236088.80000000075,236089,235622.741,237624.341,
空白時間1 (0.5秒),canvas.Screen,13_11_0,2023-01-12T14:18:42.146Z,,,b,,,0,200.1600000000035,timeout,e.jpg,,,238300.6000000015,238300.30000000075,238085.5,238086.3999999985,237624.341,237824.501,
注視(1秒),canvas.Screen,13_11_1,2023-01-12T14:18:42.761Z,,,b,,,0,617.1600000000035,timeout,e.jpg,,,238915.6000000015,238915.30000000075,238300.30000000075,238300.80000000075,237824.501,238441.661,
空白時間2 (0.5秒),canvas.Screen,13_11_2,2023-01-12T14:18:42.764Z,,,b,,,0,16.679999999993015,timeout,e.jpg,,,238918.69999999925,238918.3999999985,238915.30000000075,238915.8999999985,238441.661,238458.341,
刺激提示,canvas.Screen,13_11_3,2023-01-12T14:18:43.172Z,,,b,true,b,0,860.7590000015043,response,e.jpg,b,keypress(f),239327.1000000015,239319.1000000015,238918.3999999985,238918.80000000075,238458.341,238908.701,
フィードバック(0.5秒),canvas.Screen,13_11_4,2023-01-12T14:18:43.434Z,,,b,,,0,216.8399999999965,timeout,e.jpg,,,239589.30000000075,239589,238875.341,239328.8999999985,238908.701,239125.541,
トライアル,flow.Sequence,13_11,2023-01-12T14:18:43.435Z,,,b,,,0,1964.6590000000142,completion,e.jpg,,,239589.69999999925,239589,238085.5,238086.30000000075,237624.341,239125.541,
空白時間1 (0.5秒),canvas.Screen,13_12_0,2023-01-12T14:18:43.649Z,,,d,,,180,216.8399999999965,timeout,eR.jpg,,,239804.1000000015,239803.80000000075,239589,239589.8999999985,239125.541,239342.381,
注視(1秒),canvas.Screen,13_12_1,2023-01-12T14:18:44.328Z,,,d,,,180,667.2000000000116,timeout,eR.jpg,,,240483.3999999985,240483,239803.80000000075,239804.19999999925,239342.381,240009.581,
空白時間2 (0.5秒),canvas.Screen,13_12_2,2023-01-12T14:18:44.331Z,,,d,,,180,16.679999999993015,timeout,eR.jpg,,,240486.3999999985,240486.19999999925,240483,240483.6000000015,240009.581,240026.261,
刺激提示,canvas.Screen,13_12_3,2023-01-12T14:18:44.855Z,,,d,true,d,180,980.0390000007465,response,eR.jpg,d,keypress(j),241010.3999999985,241006.30000000075,240486.19999999925,240486.6000000015,240026.261,240560.021,
フィードバック(0.5秒),canvas.Screen,13_12_4,2023-01-12T14:18:45.081Z,,,d,,,180,200.1600000000035,timeout,eR.jpg,,,241235.8999999985,241235.69999999925,240543.341,241011.3999999985,240560.021,240760.181,
トライアル,flow.Sequence,13_12,2023-01-12T14:18:45.081Z,,,d,,,180,2110.1589999992575,completion,eR.jpg,,,241236.30000000075,241235.69999999925,239589,239589.8999999985,239125.541,240760.181,
空白時間1 (0.5秒),canvas.Screen,13_13_0,2023-01-12T14:18:45.083Z,,,b,,,45,33.35999999998603,timeout,e.jpg,,,241238.19999999925,241238.1000000015,241235.69999999925,241236.3999999985,240760.181,240793.541,
注視(1秒),canvas.Screen,13_13_1,2023-01-12T14:18:45.727Z,,,b,,,45,617.1600000000035,timeout,e.jpg,,,241882.30000000075,241882,241238.1000000015,241238.3999999985,240793.541,241410.701,
空白時間2 (0.5秒),canvas.Screen,13_13_2,2023-01-12T14:18:45.936Z,,,b,,,45,216.8399999999965,timeout,e.jpg,,,242091.19999999925,242091,241882,241882.5,241410.701,241627.541,
刺激提示,canvas.Screen,13_13_3,2023-01-12T14:18:46.322Z,,,b,true,b,45,841.5590000014927,response,e.jpg,b,keypress(f),242476.69999999925,242469.1000000015,242091,242091.3999999985,241627.541,242061.221,
フィードバック(0.5秒),canvas.Screen,13_13_4,2023-01-12T14:18:46.386Z,,,b,,,45,16.68000000002212,timeout,e.jpg,,,242540.6000000015,242540.3999999985,242044.541,242479.3999999985,242061.221,242077.901,
トライアル,flow.Sequence,13_13,2023-01-12T14:18:46.386Z,,,b,,,45,1780.2189999984985,completion,e.jpg,,,242540.8999999985,242540.3999999985,241235.69999999925,241236.3999999985,240760.181,242077.901,
空白時間1 (0.5秒),canvas.Screen,13_14_0,2023-01-12T14:18:46.415Z,,,d,,,315,33.35999999998603,timeout,eR.jpg,,,242569.8999999985,242569.80000000075,242540.3999999985,242541,242077.901,242111.261,
注視(1秒),canvas.Screen,13_14_1,2023-01-12T14:18:47.051Z,,,d,,,315,617.1600000000035,timeout,eR.jpg,,,243205.80000000075,243205.5,242569.80000000075,242570,242111.261,242728.421,
空白時間2 (0.5秒),canvas.Screen,13_14_2,2023-01-12T14:18:47.054Z,,,d,,,315,16.679999999993015,timeout,eR.jpg,,,243208.8999999985,243208.69999999925,243205.5,243206,242728.421,242745.101,
刺激提示,canvas.Screen,13_14_3,2023-01-12T14:18:47.571Z,,,d,true,d,315,972.7989999985148,response,eR.jpg,d,keypress(j),243725.80000000075,243717.8999999985,243208.69999999925,243209.1000000015,242745.101,243278.861,
フィードバック(0.5秒),canvas.Screen,13_14_4,2023-01-12T14:18:47.800Z,,,d,,,315,200.1600000000035,timeout,eR.jpg,,,243954.69999999925,243954.3999999985,243262.181,243727.3999999985,243278.861,243479.021,
トライアル,flow.Sequence,13_14,2023-01-12T14:18:47.800Z,,,d,,,315,1876.4989999984973,completion,eR.jpg,,,243955,243954.3999999985,242540.3999999985,242541,242077.901,243479.021,
空白時間1 (0.5秒),canvas.Screen,13_15_0,2023-01-12T14:18:47.802Z,,,d,,,270,33.35999999998603,timeout,eR.jpg,,,243957.30000000075,243957.1000000015,243954.3999999985,243955.19999999925,243479.021,243512.381,
注視(1秒),canvas.Screen,13_15_1,2023-01-12T14:18:48.473Z,,,d,,,270,650.5200000000186,timeout,eR.jpg,,,244628.1000000015,244627.80000000075,243957.1000000015,243957.3999999985,243512.381,244162.901,
空白時間2 (0.5秒),canvas.Screen,13_15_2,2023-01-12T14:18:48.705Z,,,d,,,270,232.61999999999534,timeout,eR.jpg,,,244860.30000000075,244859.8999999985,244627.80000000075,244628.30000000075,244162.901,244395.521,
刺激提示,canvas.Screen,13_15_3,2023-01-12T14:18:49.168Z,,,d,true,d,270,919.7790000007371,response,eR.jpg,d,keypress(j),245323.1000000015,245315.30000000075,244859.8999999985,244860.5,244395.521,244895.921,
フィードバック(0.5秒),canvas.Screen,13_15_4,2023-01-12T14:18:49.419Z,,,d,,,270,200.1600000000035,timeout,eR.jpg,,,245573.8999999985,245573.80000000075,244879.241,245325.69999999925,244895.921,245096.081,
