sender,sender_type,sender_id,timestamp,meta,,answer,correct,correctResponse,deg,duration,ended_on,image,response,response_action,time_commit,time_end,time_render,time_run,time_show,time_switch,url
イントロ1,html.Page,0,2023-01-09T23:25:03.785Z,"{""labjs_version"":""20.2.4"",""labjs_build"":{""flavor"":""development"",""commit"":""f5b4a49f956347addd546a832a3327688c2c0fef""},""location"":""https://labjs.felixhenninger.com/api/labjs_preview/index.html"",""userAgent"":""Mozilla/5.0 (Macintosh; Intel Mac OS X 10_15_7) AppleWebKit/537.36 (KHTML, like Gecko) Chrome/108.0.0.0 Safari/537.36"",""platform"":""MacIntel"",""language"":""ja"",""locale"":""ja"",""timeZone"":""Asia/Tokyo"",""timezoneOffset"":-540,""screen_width"":1440,""screen_height"":900,""scroll_width"":1198,""scroll_height"":658,""window_innerWidth"":1198,""window_innerHeight"":706,""devicePixelRatio"":2}",,,,,,20476.69299999851,form submission,,,,20787.60000000149,20786.89999999851,226.872,400.80000000447035,310.207,20710.65,{}
イントロ2,html.Page,1,2023-01-09T23:25:10.278Z,,,,,,,6570.050000002979,form submission,,,,27281,27280.70000000298,20693.983,20788.10000000149,20710.65,27194.113,
イントロ3,html.Page,2,2023-01-09T23:25:18.595Z,,,,,,,8403.087000002979,form submission,,,,35597.70000000298,35597.20000000298,27177.446,27281.20000000298,27194.113,35510.946,
イントロ4,html.Page,3,2023-01-09T23:25:27.611Z,,,,,,,9103.354000004467,form submission,,,,44614.80000000447,44614.30000000447,35494.279,35597.80000000447,35510.946,44527.85,
イントロ5,html.Page,4,2023-01-09T23:25:29.643Z,,,,,,,2118.2500000014916,form submission,,,,46646.5,46646.10000000149,44511.183,44615.10000000149,44527.85,46577.891,
できるだけ早く正確に,canvas.Screen,5,2023-01-09T23:25:30.647Z,,,,,,,999.9519999999975,timeout,,,,47650.60000000149,47561.176,46544.557,46646.80000000447,46577.891,47577.843,
空白時間1 (0.5秒),canvas.Screen,6_0_0,2023-01-09T23:25:31.147Z,,,b,,,270,500.01000000000204,timeout,e.jpg,,,48150.5,48061.186,47561.176,47651,47577.843,48077.853,
注視(1秒),canvas.Screen,6_0_1,2023-01-09T23:25:32.147Z,,,b,,,270,1000.0199999999968,timeout,e.jpg,,,49150.30000000447,49061.206,48061.186,48150.89999999851,48077.853,49077.873,
空白時間2 (0.5秒),canvas.Screen,6_0_2,2023-01-09T23:25:32.647Z,,,b,,,270,500.01000000000204,timeout,e.jpg,,,49650.20000000298,49561.216,49061.206,49150.60000000149,49077.873,49577.883,
刺激提示(練習),canvas.Screen,6_0_3,2023-01-09T23:25:33.577Z,,,b,true,b,270,995.4170000044687,response,e.jpg,b,keypress(f),50580.30000000447,50573.30000000447,49561.216,49650.60000000149,49577.883,50511.235,
フィードバック(0.5秒),canvas.Screen,6_0_4,2023-01-09T23:25:34.079Z,,,b,,,270,500.01000000000204,timeout,e.jpg,,,51082.80000000447,50994.578,50494.568,50581.80000000447,50511.235,51011.245,
トライアル,flow.Sequence,6_0,2023-01-09T23:25:34.080Z,,,b,,,270,3416.7350000000006,completion,e.jpg,,,51083.60000000149,50994.578,47561.176,47650.89999999851,47577.843,51011.245,
空白時間1 (0.5秒),canvas.Screen,6_1_0,2023-01-09T23:25:34.580Z,,,d,,,135,500.00999999999476,timeout,eR.jpg,,,51583.89999999851,51494.588,50994.578,51083.89999999851,51011.245,51511.255,
注視(1秒),canvas.Screen,6_1_1,2023-01-09T23:25:35.580Z,,,d,,,135,1000.0200000000041,timeout,eR.jpg,,,52583.60000000149,52494.608,51494.588,51584.30000000447,51511.255,52511.275,
空白時間2 (0.5秒),canvas.Screen,6_1_2,2023-01-09T23:25:36.081Z,,,d,,,135,500.01000000000204,timeout,eR.jpg,,,53084.10000000149,52994.618,52494.608,52584,52511.275,53011.285,
刺激提示(練習),canvas.Screen,6_1_3,2023-01-09T23:25:37.184Z,,,d,true,d,135,1169.7149999999965,response,eR.jpg,d,keypress(j),54187.89999999851,54181,52994.618,53084.5,53011.285,54111.307,
フィードバック(0.5秒),canvas.Screen,6_1_4,2023-01-09T23:25:37.680Z,,,d,,,135,500.01000000000204,timeout,eR.jpg,,,54683.20000000298,54594.65,54094.64,54190.39999999851,54111.307,54611.317,
トライアル,flow.Sequence,6_1,2023-01-09T23:25:37.680Z,,,d,,,135,3583.404999999999,completion,eR.jpg,,,54683.60000000149,54594.65,50994.578,51083.80000000447,51011.245,54611.317,
空白時間1 (0.5秒),canvas.Screen,6_2_0,2023-01-09T23:25:38.180Z,,,d,,,315,500.00999999999476,timeout,eR.jpg,,,55183.70000000298,55094.66,54594.65,54683.89999999851,54611.317,55111.327,
注視(1秒),canvas.Screen,6_2_1,2023-01-09T23:25:39.180Z,,,d,,,315,1000.0200000000041,timeout,eR.jpg,,,56183.20000000298,56094.68,55094.66,55184.20000000298,55111.327,56111.347,
空白時間2 (0.5秒),canvas.Screen,6_2_2,2023-01-09T23:25:39.680Z,,,d,,,315,500.01000000000204,timeout,eR.jpg,,,56683.39999999851,56594.69,56094.68,56183.60000000149,56111.347,56611.357,
刺激提示(練習),canvas.Screen,6_2_3,2023-01-09T23:25:40.444Z,,,d,true,d,315,828.2430000014865,response,eR.jpg,d,keypress(j),57448,57439.60000000149,56594.69,56683.60000000149,56611.357,57378.159,
フィードバック(0.5秒),canvas.Screen,6_2_4,2023-01-09T23:25:40.946Z,,,d,,,315,500.01000000000204,timeout,eR.jpg,,,57950.10000000149,57861.502,57361.492,57463,57378.159,57878.169,
トライアル,flow.Sequence,6_2,2023-01-09T23:25:40.947Z,,,d,,,315,3250.1849999999977,completion,eR.jpg,,,57950.60000000149,57861.502,54594.65,54683.80000000447,54611.317,57878.169,
空白時間1 (0.5秒),canvas.Screen,6_3_0,2023-01-09T23:25:41.447Z,,,b,,,180,500.00999999999476,timeout,e.jpg,,,58450.70000000298,58361.512,57861.502,57950.89999999851,57878.169,58378.179,
注視(1秒),canvas.Screen,6_3_1,2023-01-09T23:25:42.446Z,,,b,,,180,1000.0200000000041,timeout,e.jpg,,,59449.89999999851,59361.532,58361.512,58451.10000000149,58378.179,59378.199,
空白時間2 (0.5秒),canvas.Screen,6_3_2,2023-01-09T23:25:42.946Z,,,b,,,180,500.01000000000204,timeout,e.jpg,,,59950.20000000298,59861.542,59361.532,59450.10000000149,59378.199,59878.209,
刺激提示(練習),canvas.Screen,6_3_3,2023-01-09T23:25:43.456Z,,,b,false,b,180,574.2909999999974,response,e.jpg,d,keypress(j),60459.70000000298,60452.5,59861.542,59950.5,59878.209,60378.219,
フィードバック(0.5秒),canvas.Screen,6_3_4,2023-01-09T23:25:43.947Z,,,b,,,180,500.01000000000204,timeout,e.jpg,,,60950.60000000149,60861.562,60361.552,60461.30000000447,60378.219,60878.229,
トライアル,flow.Sequence,6_3,2023-01-09T23:25:43.947Z,,,b,,,180,2983.3929999999964,completion,e.jpg,,,60951,60861.562,57861.502,57950.80000000447,57878.169,60878.229,
練習試行(e),flow.Loop,6,2023-01-09T23:25:43.948Z,,,,,,,13283.718999999997,completion,,,,60951.30000000447,60861.562,47561.176,47650.89999999851,47577.843,60878.229,
イントロ6,html.Page,7,2023-01-09T23:25:47.110Z,,,,,,,3234.971000002981,form submission,,,,64113.60000000149,64113.20000000298,60861.562,60951.5,60878.229,64028.292,
できるだけ早く正確に,canvas.Screen,8,2023-01-09T23:25:48.096Z,,,,,,,1000.0199999999968,timeout,,,,65099.89999999851,65011.645,64011.625,64113.80000000447,64028.292,65028.312,
空白時間1 (0.5秒),canvas.Screen,9_0_0,2023-01-09T23:25:48.597Z,,,b,,,315,500.01000000000204,timeout,e.jpg,,,65600.70000000298,65511.655,65011.645,65100.30000000447,65028.312,65528.322,
注視(1秒),canvas.Screen,9_0_1,2023-01-09T23:25:49.597Z,,,b,,,315,1000.0200000000041,timeout,e.jpg,,,66600.5,66511.675,65511.655,65601.10000000149,65528.322,66528.342,
空白時間2 (0.5秒),canvas.Screen,9_0_2,2023-01-09T23:25:50.097Z,,,b,,,315,500.00999999999476,timeout,e.jpg,,,67100.60000000149,67011.685,66511.675,66600.80000000447,66528.342,67028.352,
刺激提示,canvas.Screen,9_0_3,2023-01-09T23:25:50.726Z,,,b,true,b,315,693.4480000044714,response,e.jpg,b,keypress(f),67729.5,67721.80000000447,67011.685,67101,67028.352,67645.057,
フィードバック(0.5秒),canvas.Screen,9_0_4,2023-01-09T23:25:51.213Z,,,b,,,315,500.00999999999476,timeout,e.jpg,,,68217,68128.4,67628.39,67744.5,67645.057,68145.067,
トライアル,flow.Sequence,9_0,2023-01-09T23:25:51.214Z,,,b,,,315,3100.087999999996,completion,e.jpg,,,68217.39999999851,68128.4,65011.645,65100.20000000298,65028.312,68145.067,
空白時間1 (0.5秒),canvas.Screen,9_1_0,2023-01-09T23:25:51.713Z,,,b,,,270,500.0100000000093,timeout,e.jpg,,,68716.89999999851,68628.41,68128.4,68217.60000000149,68145.067,68645.077,
注視(1秒),canvas.Screen,9_1_1,2023-01-09T23:25:52.714Z,,,b,,,270,1000.0199999999895,timeout,e.jpg,,,69717.5,69628.43,68628.41,68717.20000000298,68645.077,69645.097,
空白時間2 (0.5秒),canvas.Screen,9_1_2,2023-01-09T23:25:53.213Z,,,b,,,270,500.0100000000093,timeout,e.jpg,,,70217.30000000447,70128.44,69628.43,69718,69645.097,70145.107,
刺激提示,canvas.Screen,9_1_3,2023-01-09T23:25:53.782Z,,,b,true,b,270,634.5930000029766,response,e.jpg,b,keypress(f),70785.70000000298,70779.70000000298,70128.44,70217.60000000149,70145.107,70728.452,
フィードバック(0.5秒),canvas.Screen,9_1_4,2023-01-09T23:25:54.297Z,,,b,,,270,500.00999999999476,timeout,e.jpg,,,71301,71211.795,70711.785,70800.5,70728.452,71228.462,
トライアル,flow.Sequence,9_1,2023-01-09T23:25:54.297Z,,,b,,,270,3066.728000000003,completion,e.jpg,,,71301.30000000447,71211.795,68128.4,68217.5,68145.067,71228.462,
空白時間1 (0.5秒),canvas.Screen,9_2_0,2023-01-09T23:25:54.796Z,,,d,,,135,500.00999999999476,timeout,eR.jpg,,,71800.30000000447,71711.805,71211.795,71301.5,71228.462,71728.472,
注視(1秒),canvas.Screen,9_2_1,2023-01-09T23:25:55.796Z,,,d,,,135,1000.0200000000041,timeout,eR.jpg,,,72800.10000000149,72711.825,71711.805,71800.70000000298,71728.472,72728.492,
空白時間2 (0.5秒),canvas.Screen,9_2_2,2023-01-09T23:25:56.296Z,,,d,,,135,500.00999999999476,timeout,eR.jpg,,,73300.30000000447,73211.835,72711.825,72800.39999999851,72728.492,73228.502,
刺激提示,canvas.Screen,9_2_3,2023-01-09T23:25:57.028Z,,,d,true,d,135,796.8979999985168,response,eR.jpg,d,keypress(j),74032.30000000447,74025.39999999851,73211.835,73300.80000000447,73228.502,73961.85,
フィードバック(0.5秒),canvas.Screen,9_2_4,2023-01-09T23:25:57.530Z,,,d,,,135,500.00999999999476,timeout,eR.jpg,,,74534.30000000447,74445.193,73945.183,74033.89999999851,73961.85,74461.86,
トライアル,flow.Sequence,9_2,2023-01-09T23:25:57.531Z,,,d,,,135,3216.7309999999998,completion,eR.jpg,,,74534.60000000149,74445.193,71211.795,71301.39999999851,71228.462,74461.86,
空白時間1 (0.5秒),canvas.Screen,9_3_0,2023-01-09T23:25:58.030Z,,,d,,,270,500.00999999999476,timeout,eR.jpg,,,75033.80000000447,74945.203,74445.193,74534.80000000447,74461.86,74961.87,
注視(1秒),canvas.Screen,9_3_1,2023-01-09T23:25:59.030Z,,,d,,,270,1000.0200000000041,timeout,eR.jpg,,,76033.80000000447,75945.223,74945.203,75034.20000000298,74961.87,75961.89,
空白時間2 (0.5秒),canvas.Screen,9_3_2,2023-01-09T23:25:59.530Z,,,d,,,270,500.00999999999476,timeout,eR.jpg,,,76533.70000000298,76445.233,75945.223,76034.10000000149,75961.89,76461.9,
刺激提示,canvas.Screen,9_3_3,2023-01-09T23:26:00.255Z,,,d,true,d,270,788.9999999985157,response,eR.jpg,d,keypress(j),77258.89999999851,77250.89999999851,76445.233,76534,76461.9,77195.248,
フィードバック(0.5秒),canvas.Screen,9_3_4,2023-01-09T23:26:00.763Z,,,d,,,270,500.0359999999928,timeout,eR.jpg,,,77767.39999999851,77678.617,77178.581,77274.10000000149,77195.248,77695.284,
トライアル,flow.Sequence,9_3,2023-01-09T23:26:00.764Z,,,d,,,270,3216.756999999998,completion,eR.jpg,,,77768,77678.617,74445.193,74534.80000000447,74461.86,77695.284,
空白時間1 (0.5秒),canvas.Screen,9_4_0,2023-01-09T23:26:01.263Z,,,b,,,225,500.00999999999476,timeout,e.jpg,,,78267.39999999851,78178.627,77678.617,77768.20000000298,77695.284,78195.294,
注視(1秒),canvas.Screen,9_4_1,2023-01-09T23:26:02.263Z,,,b,,,225,1000.0200000000041,timeout,e.jpg,,,79267.5,79178.647,78178.627,78267.89999999851,78195.294,79195.314,
空白時間2 (0.5秒),canvas.Screen,9_4_2,2023-01-09T23:26:02.764Z,,,b,,,225,500.00999999999476,timeout,e.jpg,,,79767.70000000298,79678.657,79178.647,79268,79195.314,79695.324,
刺激提示,canvas.Screen,9_4_3,2023-01-09T23:26:03.413Z,,,b,true,b,225,714.4760000044771,response,e.jpg,b,keypress(f),80416.80000000447,80409.80000000447,79678.657,79768.10000000149,79695.324,80345.337,
フィードバック(0.5秒),canvas.Screen,9_4_4,2023-01-09T23:26:03.914Z,,,b,,,225,500.00999999999476,timeout,e.jpg,,,80917.89999999851,80828.68,80328.67,80419,80345.337,80845.347,
トライアル,flow.Sequence,9_4,2023-01-09T23:26:03.914Z,,,b,,,225,3133.3959999999934,completion,e.jpg,,,80918.39999999851,80828.68,77678.617,77768.10000000149,77695.284,80845.347,
空白時間1 (0.5秒),canvas.Screen,9_5_0,2023-01-09T23:26:04.413Z,,,b,,,45,500.0100000000093,timeout,e.jpg,,,81417.20000000298,81328.69,80828.68,80918.60000000149,80845.347,81345.357,
注視(1秒),canvas.Screen,9_5_1,2023-01-09T23:26:05.413Z,,,b,,,45,1000.0199999999895,timeout,e.jpg,,,82417.5,82328.71,81328.69,81417.5,81345.357,82345.377,
空白時間2 (0.5秒),canvas.Screen,9_5_2,2023-01-09T23:26:05.914Z,,,b,,,45,500.0100000000093,timeout,e.jpg,,,82917.89999999851,82828.72,82328.71,82417.89999999851,82345.377,82845.387,
刺激提示,canvas.Screen,9_5_3,2023-01-09T23:26:06.512Z,,,b,false,b,45,665.4130000044679,response,e.jpg,d,keypress(j),83516,83510.80000000447,82828.72,82918.20000000298,82845.387,83445.399,
フィードバック(0.5秒),canvas.Screen,9_5_4,2023-01-09T23:26:07.013Z,,,b,,,45,500.00999999999476,timeout,e.jpg,,,84017.20000000298,83928.742,83428.732,83531.60000000149,83445.399,83945.409,
トライアル,flow.Sequence,9_5,2023-01-09T23:26:07.013Z,,,b,,,45,3083.395000000004,completion,e.jpg,,,84017.60000000149,83928.742,80828.68,80918.60000000149,80845.347,83945.409,
空白時間1 (0.5秒),canvas.Screen,9_6_0,2023-01-09T23:26:07.513Z,,,b,,,135,500.00999999999476,timeout,e.jpg,,,84517.10000000149,84428.752,83928.742,84017.89999999851,83945.409,84445.419,
注視(1秒),canvas.Screen,9_6_1,2023-01-09T23:26:08.513Z,,,b,,,135,1000.0200000000041,timeout,e.jpg,,,85517.70000000298,85428.772,84428.752,84517.5,84445.419,85445.439,
空白時間2 (0.5秒),canvas.Screen,9_6_2,2023-01-09T23:26:09.013Z,,,b,,,135,500.00999999999476,timeout,e.jpg,,,86017.5,85928.782,85428.772,85518.10000000149,85445.439,85945.449,
刺激提示,canvas.Screen,9_6_3,2023-01-09T23:26:10.029Z,,,b,true,b,135,1081.0510000000068,response,e.jpg,b,keypress(f),87033.5,87026.5,85928.782,86017.80000000447,85945.449,86962.136,
フィードバック(0.5秒),canvas.Screen,9_6_4,2023-01-09T23:26:10.530Z,,,b,,,135,500.00999999999476,timeout,e.jpg,,,87534.30000000447,87445.479,86945.469,87048.39999999851,86962.136,87462.146,
トライアル,flow.Sequence,9_6,2023-01-09T23:26:10.530Z,,,b,,,135,3500.070000000007,completion,e.jpg,,,87534.89999999851,87445.479,83928.742,84017.89999999851,83945.409,87462.146,
空白時間1 (0.5秒),canvas.Screen,9_7_0,2023-01-09T23:26:11.030Z,,,d,,,90,500.00500000000466,timeout,eR.jpg,,,88034.10000000149,87945.484,87445.479,87535,87462.146,87962.151,
注視(1秒),canvas.Screen,9_7_1,2023-01-09T23:26:12.030Z,,,d,,,90,1000.0200000000041,timeout,eR.jpg,,,89034.70000000298,88945.504,87945.484,88034.5,87962.151,88962.171,
空白時間2 (0.5秒),canvas.Screen,9_7_2,2023-01-09T23:26:12.530Z,,,d,,,90,500.00999999999476,timeout,eR.jpg,,,89533.89999999851,89445.514,88945.504,89035,88962.171,89462.181,
刺激提示,canvas.Screen,9_7_3,2023-01-09T23:26:13.216Z,,,d,true,d,90,751.0190000029834,response,eR.jpg,d,keypress(j),90220.60000000149,90213.20000000298,89445.514,89534.39999999851,89462.181,90145.528,
フィードバック(0.5秒),canvas.Screen,9_7_4,2023-01-09T23:26:13.714Z,,,d,,,90,500.00999999999476,timeout,eR.jpg,,,90718.20000000298,90628.871,90128.861,90222.30000000447,90145.528,90645.538,
トライアル,flow.Sequence,9_7,2023-01-09T23:26:13.714Z,,,d,,,90,3166.725000000006,completion,eR.jpg,,,90718.60000000149,90628.871,87445.479,87535,87462.146,90645.538,
空白時間1 (0.5秒),canvas.Screen,9_8_0,2023-01-09T23:26:14.213Z,,,d,,,45,500.00999999999476,timeout,eR.jpg,,,91217.39999999851,91128.881,90628.871,90718.89999999851,90645.538,91145.548,
注視(1秒),canvas.Screen,9_8_1,2023-01-09T23:26:15.213Z,,,d,,,45,1000.0200000000041,timeout,eR.jpg,,,92217.5,92128.901,91128.881,91217.70000000298,91145.548,92145.568,
空白時間2 (0.5秒),canvas.Screen,9_8_2,2023-01-09T23:26:15.713Z,,,d,,,45,500.00999999999476,timeout,eR.jpg,,,92717.60000000149,92628.911,92128.901,92217.89999999851,92145.568,92645.578,
刺激提示,canvas.Screen,9_8_3,2023-01-09T23:26:16.254Z,,,d,true,d,45,607.022000001496,response,eR.jpg,d,keypress(j),93258.20000000298,93252.60000000149,92628.911,92717.89999999851,92645.578,93195.589,
フィードバック(0.5秒),canvas.Screen,9_8_4,2023-01-09T23:26:16.763Z,,,d,,,45,500.00999999999476,timeout,eR.jpg,,,93767.20000000298,93678.932,93178.922,93272.39999999851,93195.589,93695.599,
トライアル,flow.Sequence,9_8,2023-01-09T23:26:16.763Z,,,d,,,45,3033.3940000000002,completion,eR.jpg,,,93767.60000000149,93678.932,90628.871,90718.80000000447,90645.538,93695.599,
空白時間1 (0.5秒),canvas.Screen,9_9_0,2023-01-09T23:26:17.263Z,,,d,,,180,500.00999999999476,timeout,eR.jpg,,,94268,94178.942,93678.932,93767.89999999851,93695.599,94195.609,
注視(1秒),canvas.Screen,9_9_1,2023-01-09T23:26:18.263Z,,,d,,,180,1000.0200000000041,timeout,eR.jpg,,,95267.70000000298,95178.962,94178.942,94268.5,94195.609,95195.629,
空白時間2 (0.5秒),canvas.Screen,9_9_2,2023-01-09T23:26:18.763Z,,,d,,,180,500.00999999999476,timeout,eR.jpg,,,95767.80000000447,95678.972,95178.962,95268.10000000149,95195.629,95695.639,
刺激提示,canvas.Screen,9_9_3,2023-01-09T23:26:19.939Z,,,d,false,d,180,1240.8610000000044,response,eR.jpg,b,keypress(f),96943.39999999851,96936.5,95678.972,95768.20000000298,95695.639,96878.996,
フィードバック(0.5秒),canvas.Screen,9_9_4,2023-01-09T23:26:20.446Z,,,d,,,180,500.00999999999476,timeout,eR.jpg,,,97450.5,97362.339,96862.329,96959.60000000149,96878.996,97379.006,
トライアル,flow.Sequence,9_9,2023-01-09T23:26:20.446Z,,,d,,,180,3666.7400000000052,completion,eR.jpg,,,97451,97362.339,93678.932,93767.70000000298,93695.599,97379.006,
空白時間1 (0.5秒),canvas.Screen,9_10_0,2023-01-09T23:26:20.947Z,,,d,,,315,500.0100000000093,timeout,eR.jpg,,,97951.30000000447,97862.349,97362.339,97451.20000000298,97379.006,97879.016,
注視(1秒),canvas.Screen,9_10_1,2023-01-09T23:26:21.946Z,,,d,,,315,1000.0769999999902,timeout,eR.jpg,,,98950.70000000298,98862.426,97862.349,97951.60000000149,97879.016,98879.093,
空白時間2 (0.5秒),canvas.Screen,9_10_2,2023-01-09T23:26:22.447Z,,,d,,,315,500.0100000000093,timeout,eR.jpg,,,99451.39999999851,99362.436,98862.426,98951.10000000149,98879.093,99379.103,
刺激提示,canvas.Screen,9_10_3,2023-01-09T23:26:23.322Z,,,d,true,d,315,940.6970000044676,response,eR.jpg,d,keypress(j),100327.10000000149,100319.80000000447,99362.436,99451.70000000298,99379.103,100245.787,
フィードバック(0.5秒),canvas.Screen,9_10_4,2023-01-09T23:26:23.813Z,,,d,,,315,500.0100000000093,timeout,eR.jpg,,,100818.20000000298,100729.13,100229.12,100328.5,100245.787,100745.797,
トライアル,flow.Sequence,9_10,2023-01-09T23:26:23.814Z,,,d,,,315,3350.1240000000107,completion,eR.jpg,,,100818.60000000149,100729.13,97362.339,97451.10000000149,97379.006,100745.797,
空白時間1 (0.5秒),canvas.Screen,9_11_0,2023-01-09T23:26:24.313Z,,,d,,,0,500.00999999999476,timeout,eR.jpg,,,101317.5,101229.14,100729.13,100818.70000000298,100745.797,101245.807,
注視(1秒),canvas.Screen,9_11_1,2023-01-09T23:26:25.313Z,,,d,,,0,1000.0200000000041,timeout,eR.jpg,,,102317.70000000298,102229.16,101229.14,101317.89999999851,101245.807,102245.827,
空白時間2 (0.5秒),canvas.Screen,9_11_2,2023-01-09T23:26:25.813Z,,,d,,,0,500.00999999999476,timeout,eR.jpg,,,102817.70000000298,102729.17,102229.16,102318,102245.827,102745.837,
刺激提示,canvas.Screen,9_11_3,2023-01-09T23:26:26.405Z,,,d,true,d,0,659.2630000014906,response,eR.jpg,d,keypress(j),103409.60000000149,103405.10000000149,102729.17,102818,102745.837,103345.849,
フィードバック(0.5秒),canvas.Screen,9_11_4,2023-01-09T23:26:26.913Z,,,d,,,0,500.00999999999476,timeout,eR.jpg,,,103918,103829.192,103329.182,103418.10000000149,103345.849,103845.859,
トライアル,flow.Sequence,9_11,2023-01-09T23:26:26.913Z,,,d,,,0,3083.3949999999895,completion,eR.jpg,,,103918.30000000447,103829.192,100729.13,100818.70000000298,100745.797,103845.859,
空白時間1 (0.5秒),canvas.Screen,9_12_0,2023-01-09T23:26:27.413Z,,,b,,,90,500.0100000000093,timeout,e.jpg,,,104417.89999999851,104329.202,103829.192,103918.5,103845.859,104345.869,
注視(1秒),canvas.Screen,9_12_1,2023-01-09T23:26:28.413Z,,,b,,,90,1000.0199999999895,timeout,e.jpg,,,105418.20000000298,105329.222,104329.202,104418.30000000447,104345.869,105345.889,
空白時間2 (0.5秒),canvas.Screen,9_12_2,2023-01-09T23:26:28.913Z,,,b,,,90,500.0100000000093,timeout,e.jpg,,,105917.80000000447,105829.232,105329.222,105418.5,105345.889,105845.899,
刺激提示,canvas.Screen,9_12_3,2023-01-09T23:26:29.526Z,,,b,true,b,90,678.8010000029753,response,e.jpg,b,keypress(f),106530.39999999851,106524.70000000298,105829.232,105918.20000000298,105845.899,106462.578,
フィードバック(0.5秒),canvas.Screen,9_12_4,2023-01-09T23:26:30.030Z,,,b,,,90,500.0100000000093,timeout,e.jpg,,,107034.60000000149,106945.921,106445.911,106533.80000000447,106462.578,106962.588,
トライアル,flow.Sequence,9_12,2023-01-09T23:26:30.030Z,,,b,,,90,3100.0620000000054,completion,e.jpg,,,107035.10000000149,106945.921,103829.192,103918.39999999851,103845.859,106962.588,
空白時間1 (0.5秒),canvas.Screen,9_13_0,2023-01-09T23:26:30.530Z,,,d,,,225,500.00999999999476,timeout,eR.jpg,,,107534.70000000298,107445.931,106945.921,107035.30000000447,106962.588,107462.598,
注視(1秒),canvas.Screen,9_13_1,2023-01-09T23:26:31.530Z,,,d,,,225,1000.0200000000041,timeout,eR.jpg,,,108534.70000000298,108445.951,107445.931,107535,107462.598,108462.618,
空白時間2 (0.5秒),canvas.Screen,9_13_2,2023-01-09T23:26:32.030Z,,,d,,,225,500.0570000000007,timeout,eR.jpg,,,109035,108946.008,108445.951,108535,108462.618,108962.675,
刺激提示,canvas.Screen,9_13_3,2023-01-09T23:26:32.982Z,,,d,true,d,225,1018.724999998507,response,eR.jpg,d,keypress(j),109987.20000000298,109981.39999999851,108946.008,109035.39999999851,108962.675,109929.361,
フィードバック(0.5秒),canvas.Screen,9_13_4,2023-01-09T23:26:33.496Z,,,d,,,225,500.00999999999476,timeout,eR.jpg,,,110501.20000000298,110412.704,109912.694,110002,109929.361,110429.371,
トライアル,flow.Sequence,9_13,2023-01-09T23:26:33.497Z,,,d,,,225,3450.1159999999945,completion,eR.jpg,,,110501.70000000298,110412.704,106945.921,107035.30000000447,106962.588,110429.371,
空白時間1 (0.5秒),canvas.Screen,9_14_0,2023-01-09T23:26:33.997Z,,,b,,,180,500.00999999999476,timeout,e.jpg,,,111001.89999999851,110912.714,110412.704,110502,110429.371,110929.381,
注視(1秒),canvas.Screen,9_14_1,2023-01-09T23:26:34.996Z,,,b,,,180,1000.0200000000041,timeout,e.jpg,,,112001.10000000149,111912.734,110912.714,111002.39999999851,110929.381,111929.401,
空白時間2 (0.5秒),canvas.Screen,9_14_2,2023-01-09T23:26:35.496Z,,,b,,,180,500.00999999999476,timeout,e.jpg,,,112501.10000000149,112412.744,111912.734,112001.5,111929.401,112429.411,
刺激提示,canvas.Screen,9_14_3,2023-01-09T23:26:36.098Z,,,b,false,b,180,666.8890000044776,response,e.jpg,d,keypress(j),113103.39999999851,113096.30000000447,112412.744,112501.39999999851,112429.411,113046.09,
フィードバック(0.5秒),canvas.Screen,9_14_4,2023-01-09T23:26:36.613Z,,,b,,,180,500.0100000000093,timeout,e.jpg,,,113617.89999999851,113529.433,113029.423,113119.39999999851,113046.09,113546.1,
トライアル,flow.Sequence,9_14,2023-01-09T23:26:36.613Z,,,b,,,180,3100.0620000000054,completion,e.jpg,,,113618.30000000447,113529.433,110412.704,110501.89999999851,110429.371,113546.1,
空白時間1 (0.5秒),canvas.Screen,9_15_0,2023-01-09T23:26:37.113Z,,,b,,,0,500.00999999999476,timeout,e.jpg,,,114118.39999999851,114029.443,113529.433,113618.60000000149,113546.1,114046.11,
注視(1秒),canvas.Screen,9_15_1,2023-01-09T23:26:38.113Z,,,b,,,0,1000.0200000000041,timeout,e.jpg,,,115118.5,115029.463,114029.443,114118.80000000447,114046.11,115046.13,
空白時間2 (0.5秒),canvas.Screen,9_15_2,2023-01-09T23:26:38.613Z,,,b,,,0,500.00999999999476,timeout,e.jpg,,,115618.10000000149,115529.473,115029.463,115118.70000000298,115046.13,115546.14,
刺激提示,canvas.Screen,9_15_3,2023-01-09T23:26:39.464Z,,,b,true,b,0,914.8600000000006,response,e.jpg,b,keypress(f),116468.80000000447,116461,115529.473,115618.5,115546.14,116396.157,
フィードバック(0.5秒),canvas.Screen,9_15_4,2023-01-09T23:26:39.963Z,,,b,,,0,500.00999999999476,timeout,e.jpg,,,116968.39999999851,116879.5,116379.49,116471.30000000447,116396.157,116896.167,
トライアル,flow.Sequence,9_15,2023-01-09T23:26:39.964Z,,,b,,,0,3333.399999999994,completion,e.jpg,,,116968.89999999851,116879.5,113529.433,113618.5,113546.1,116896.167,
タスクのセット,flow.Loop,9,2023-01-09T23:26:39.964Z,,,,,,,51851.188,completion,,,,116969.20000000298,116879.5,65011.645,65100.20000000298,65028.312,116896.167,
空白時間1 (0.5秒),canvas.Screen,10_0_0,2023-01-09T23:26:40.463Z,,,b,,,0,500.00999999999476,timeout,e.jpg,,,117468.30000000447,117379.51,116879.5,116969.5,116896.167,117396.177,
注視(1秒),canvas.Screen,10_0_1,2023-01-09T23:26:41.463Z,,,b,,,0,1000.0200000000041,timeout,e.jpg,,,118468.30000000447,118379.53,117379.51,117468.70000000298,117396.177,118396.197,
空白時間2 (0.5秒),canvas.Screen,10_0_2,2023-01-09T23:26:41.963Z,,,b,,,0,500.00999999999476,timeout,e.jpg,,,118968.10000000149,118879.54,118379.53,118468.70000000298,118396.197,118896.207,
刺激提示,canvas.Screen,10_0_3,2023-01-09T23:26:42.494Z,,,b,true,b,0,596.3930000014952,response,e.jpg,b,keypress(f),119499.10000000149,119492.60000000149,118879.54,118968.5,118896.207,119429.556,
フィードバック(0.5秒),canvas.Screen,10_0_4,2023-01-09T23:26:42.997Z,,,b,,,0,500.0100000000093,timeout,e.jpg,,,120002,119912.899,119412.889,119514.5,119429.556,119929.566,
トライアル,flow.Sequence,10_0,2023-01-09T23:26:42.997Z,,,b,,,0,3016.7320000000036,completion,e.jpg,,,120002.5,119912.899,116879.5,116969.39999999851,116896.167,119929.566,
空白時間1 (0.5秒),canvas.Screen,10_1_0,2023-01-09T23:26:43.497Z,,,b,,,90,500.00999999999476,timeout,e.jpg,,,120501.80000000447,120412.909,119912.899,120002.70000000298,119929.566,120429.576,
注視(1秒),canvas.Screen,10_1_1,2023-01-09T23:26:44.496Z,,,b,,,90,1000.0200000000041,timeout,e.jpg,,,121501.5,121412.929,120412.909,120502.10000000149,120429.576,121429.596,
空白時間2 (0.5秒),canvas.Screen,10_1_2,2023-01-09T23:26:44.996Z,,,b,,,90,500.00999999999476,timeout,e.jpg,,,122001.39999999851,121912.939,121412.929,121501.89999999851,121429.596,121929.606,
刺激提示,canvas.Screen,10_1_3,2023-01-09T23:26:45.665Z,,,b,true,b,90,733.5940000029805,response,e.jpg,b,keypress(f),122670.5,122663.20000000298,121912.939,122001.80000000447,121929.606,122596.286,
フィードバック(0.5秒),canvas.Screen,10_1_4,2023-01-09T23:26:46.163Z,,,b,,,90,500.0100000000093,timeout,e.jpg,,,123168.20000000298,123079.629,122579.619,122673,122596.286,123096.296,
トライアル,flow.Sequence,10_1,2023-01-09T23:26:46.163Z,,,b,,,90,3150.0629999999946,completion,e.jpg,,,123168.70000000298,123079.629,119912.899,120002.70000000298,119929.566,123096.296,
空白時間1 (0.5秒),canvas.Screen,10_2_0,2023-01-09T23:26:46.662Z,,,b,,,45,500.00999999999476,timeout,e.jpg,,,123667.70000000298,123579.639,123079.629,123168.80000000447,123096.296,123596.306,
注視(1秒),canvas.Screen,10_2_1,2023-01-09T23:26:47.663Z,,,b,,,45,1000.0200000000041,timeout,e.jpg,,,124668.30000000447,124579.659,123579.639,123668,123596.306,124596.326,
空白時間2 (0.5秒),canvas.Screen,10_2_2,2023-01-09T23:26:48.162Z,,,b,,,45,500.00999999999476,timeout,e.jpg,,,125167.70000000298,125079.669,124579.659,124668.70000000298,124596.326,125096.336,
刺激提示,canvas.Screen,10_2_3,2023-01-09T23:26:48.767Z,,,b,true,b,45,670.0639999985142,response,e.jpg,b,keypress(f),125772.70000000298,125766.39999999851,125079.669,125168.10000000149,125096.336,125713.015,
フィードバック(0.5秒),canvas.Screen,10_2_4,2023-01-09T23:26:49.280Z,,,b,,,45,500.00999999999476,timeout,e.jpg,,,126285.30000000447,126196.358,125696.348,125788.20000000298,125713.015,126213.025,
トライアル,flow.Sequence,10_2,2023-01-09T23:26:49.280Z,,,b,,,45,3100.061999999991,completion,e.jpg,,,126285.80000000447,126196.358,123079.629,123168.70000000298,123096.296,126213.025,
空白時間1 (0.5秒),canvas.Screen,10_3_0,2023-01-09T23:26:49.780Z,,,d,,,180,500.0100000000093,timeout,eR.jpg,,,126785.60000000149,126696.368,126196.358,126286.10000000149,126213.025,126713.035,
注視(1秒),canvas.Screen,10_3_1,2023-01-09T23:26:50.780Z,,,d,,,180,1000.0199999999895,timeout,eR.jpg,,,127785,127696.388,126696.368,126786,126713.035,127713.055,
空白時間2 (0.5秒),canvas.Screen,10_3_2,2023-01-09T23:26:51.280Z,,,d,,,180,500.0100000000093,timeout,eR.jpg,,,128285.20000000298,128196.398,127696.388,127785.30000000447,127713.055,128213.065,
刺激提示,canvas.Screen,10_3_3,2023-01-09T23:26:52.364Z,,,d,true,d,180,1148.735000004468,response,eR.jpg,d,keypress(j),129369.20000000298,129361.80000000447,128196.398,128285.5,128213.065,129313.087,
フィードバック(0.5秒),canvas.Screen,10_3_4,2023-01-09T23:26:52.880Z,,,d,,,180,499.9250000000029,timeout,eR.jpg,,,129885.30000000447,129796.345,129296.42,129384.30000000447,129313.087,129813.012,
トライアル,flow.Sequence,10_3,2023-01-09T23:26:52.880Z,,,d,,,180,3583.320000000007,completion,eR.jpg,,,129885.80000000447,129796.345,126196.358,126285.89999999851,126213.025,129813.012,
空白時間1 (0.5秒),canvas.Screen,10_4_0,2023-01-09T23:26:53.380Z,,,b,,,315,500.00999999999476,timeout,e.jpg,,,130385.10000000149,130296.355,129796.345,129886,129813.012,130313.022,
注視(1秒),canvas.Screen,10_4_1,2023-01-09T23:26:54.379Z,,,b,,,315,1000.0199999999895,timeout,e.jpg,,,131384.5,131296.375,130296.355,130385.39999999851,130313.022,131313.042,
空白時間2 (0.5秒),canvas.Screen,10_4_2,2023-01-09T23:26:54.880Z,,,b,,,315,500.0100000000093,timeout,e.jpg,,,131885.5,131796.385,131296.375,131384.70000000298,131313.042,131813.052,
刺激提示,canvas.Screen,10_4_3,2023-01-09T23:26:55.483Z,,,b,true,b,315,670.0480000014941,response,e.jpg,b,keypress(f),132488.8999999985,132483.1000000015,131796.385,131885.8999999985,131813.052,132413.064,
フィードバック(0.5秒),canvas.Screen,10_4_4,2023-01-09T23:26:55.979Z,,,b,,,315,500.0099999999802,timeout,e.jpg,,,132984.80000000447,132896.407,132396.397,132491.1000000015,132413.064,132913.074,
トライアル,flow.Sequence,10_4,2023-01-09T23:26:55.980Z,,,b,,,315,3083.395000000004,completion,e.jpg,,,132985.1000000015,132896.407,129796.345,129885.89999999851,129813.012,132913.074,
空白時間1 (0.5秒),canvas.Screen,10_5_0,2023-01-09T23:26:56.480Z,,,d,,,45,500.0100000000093,timeout,eR.jpg,,,133485.30000000447,133396.417,132896.407,132985.30000000447,132913.074,133413.084,
注視(1秒),canvas.Screen,10_5_1,2023-01-09T23:26:57.480Z,,,d,,,45,1000.0199999999895,timeout,eR.jpg,,,134485.5,134396.437,133396.417,133485.70000000298,133413.084,134413.104,
空白時間2 (0.5秒),canvas.Screen,10_5_2,2023-01-09T23:26:57.980Z,,,d,,,45,500.0100000000093,timeout,eR.jpg,,,134985.1000000015,134896.447,134396.437,134485.80000000447,134413.104,134913.114,
刺激提示,canvas.Screen,10_5_3,2023-01-09T23:26:58.619Z,,,d,true,d,45,705.7859999985085,response,eR.jpg,d,keypress(j),135624.6000000015,135618.8999999985,134896.447,134985.5,134913.114,135563.127,
フィードバック(0.5秒),canvas.Screen,10_5_4,2023-01-09T23:26:59.129Z,,,d,,,45,500.0099999999802,timeout,eR.jpg,,,136134.8999999985,136046.47,135546.46,135639.30000000447,135563.127,136063.137,
トライアル,flow.Sequence,10_5,2023-01-09T23:26:59.130Z,,,d,,,45,3133.396000000008,completion,eR.jpg,,,136135.3999999985,136046.47,132896.407,132985.20000000298,132913.074,136063.137,
空白時間1 (0.5秒),canvas.Screen,10_6_0,2023-01-09T23:26:59.629Z,,,b,,,225,500.0100000000093,timeout,e.jpg,,,136634.5,136546.48,136046.47,136135.6000000015,136063.137,136563.147,
注視(1秒),canvas.Screen,10_6_1,2023-01-09T23:27:00.630Z,,,b,,,225,1000.0199999999895,timeout,e.jpg,,,137635.20000000298,137546.5,136546.48,136634.70000000298,136563.147,137563.167,
空白時間2 (0.5秒),canvas.Screen,10_6_2,2023-01-09T23:27:01.129Z,,,b,,,225,500.0100000000093,timeout,e.jpg,,,138135,138046.51,137546.5,137635.6000000015,137563.167,138063.177,
刺激提示,canvas.Screen,10_6_3,2023-01-09T23:27:02.174Z,,,b,true,b,225,1110.5230000029842,response,e.jpg,b,keypress(f),139180.1000000015,139173.70000000298,138046.51,138135.20000000298,138063.177,139113.198,
フィードバック(0.5秒),canvas.Screen,10_6_4,2023-01-09T23:27:02.680Z,,,b,,,225,500.0100000000093,timeout,e.jpg,,,139685.5,139596.541,139096.531,139194.8999999985,139113.198,139613.208,
トライアル,flow.Sequence,10_6,2023-01-09T23:27:02.680Z,,,b,,,225,3533.4040000000095,completion,e.jpg,,,139686,139596.541,136046.47,136135.5,136063.137,139613.208,
空白時間1 (0.5秒),canvas.Screen,10_7_0,2023-01-09T23:27:03.178Z,,,d,,,315,500.02999999999884,timeout,eR.jpg,,,140184.1000000015,140096.571,139596.541,139686.20000000298,139613.208,140113.238,
注視(1秒),canvas.Screen,10_7_1,2023-01-09T23:27:04.180Z,,,d,,,315,1000.0199999999895,timeout,eR.jpg,,,141185.3999999985,141096.591,140096.571,140184.5,140113.238,141113.258,
空白時間2 (0.5秒),canvas.Screen,10_7_2,2023-01-09T23:27:04.680Z,,,d,,,315,500.0100000000093,timeout,eR.jpg,,,141685.30000000447,141596.601,141096.591,141185.80000000447,141113.258,141613.268,
刺激提示,canvas.Screen,10_7_3,2023-01-09T23:27:05.338Z,,,d,true,d,315,722.9320000029693,response,eR.jpg,d,keypress(j),142344,142336.20000000298,141596.601,141685.70000000298,141613.268,142263.281,
フィードバック(0.5秒),canvas.Screen,10_7_4,2023-01-09T23:27:05.829Z,,,d,,,315,500.0100000000093,timeout,eR.jpg,,,142834.8999999985,142746.624,142246.614,142345.8999999985,142263.281,142763.291,
トライアル,flow.Sequence,10_7,2023-01-09T23:27:05.830Z,,,d,,,315,3133.4159999999974,completion,eR.jpg,,,142835.30000000447,142746.624,139596.541,139686.20000000298,139613.208,142763.291,
空白時間1 (0.5秒),canvas.Screen,10_8_0,2023-01-09T23:27:06.329Z,,,d,,,90,500.0100000000093,timeout,eR.jpg,,,143335.20000000298,143246.634,142746.624,142835.6000000015,142763.291,143263.301,
注視(1秒),canvas.Screen,10_8_1,2023-01-09T23:27:07.330Z,,,d,,,90,1000.0199999999895,timeout,eR.jpg,,,144335.80000000447,144246.654,143246.634,143335.6000000015,143263.301,144263.321,
空白時間2 (0.5秒),canvas.Screen,10_8_2,2023-01-09T23:27:07.830Z,,,d,,,90,500.0100000000093,timeout,eR.jpg,,,144835.6000000015,144746.664,144246.654,144336.30000000447,144263.321,144763.331,
刺激提示,canvas.Screen,10_8_3,2023-01-09T23:27:08.597Z,,,d,true,d,90,832.3690000029746,response,eR.jpg,d,keypress(j),145602.80000000447,145595.70000000298,144746.664,144836,144763.331,145546.68,
フィードバック(0.5秒),canvas.Screen,10_8_4,2023-01-09T23:27:09.113Z,,,d,,,90,500.0100000000093,timeout,eR.jpg,,,146118.80000000447,146030.023,145530.013,145617.8999999985,145546.68,146046.69,
トライアル,flow.Sequence,10_8,2023-01-09T23:27:09.113Z,,,d,,,90,3266.731999999989,completion,eR.jpg,,,146119.1000000015,146030.023,142746.624,142835.3999999985,142763.291,146046.69,
空白時間1 (0.5秒),canvas.Screen,10_9_0,2023-01-09T23:27:09.613Z,,,b,,,135,500.0100000000093,timeout,e.jpg,,,146618.8999999985,146530.033,146030.023,146119.3999999985,146046.69,146546.7,
注視(1秒),canvas.Screen,10_9_1,2023-01-09T23:27:10.613Z,,,b,,,135,1000.0199999999895,timeout,e.jpg,,,147618.80000000447,147530.053,146530.033,146619.20000000298,146546.7,147546.72,
空白時間2 (0.5秒),canvas.Screen,10_9_2,2023-01-09T23:27:11.113Z,,,b,,,135,500.0100000000093,timeout,e.jpg,,,148119.20000000298,148030.063,147530.053,147619,147546.72,148046.73,
刺激提示,canvas.Screen,10_9_3,2023-01-09T23:27:11.892Z,,,b,true,b,135,843.4700000029698,response,e.jpg,b,keypress(f),148898,148890.20000000298,148030.063,148119.5,148046.73,148830.079,
フィードバック(0.5秒),canvas.Screen,10_9_4,2023-01-09T23:27:12.396Z,,,b,,,135,500.0100000000093,timeout,e.jpg,,,149401.8999999985,149313.422,148813.412,148912.80000000447,148830.079,149330.089,
トライアル,flow.Sequence,10_9,2023-01-09T23:27:12.396Z,,,b,,,135,3266.731999999989,completion,e.jpg,,,149402.30000000447,149313.422,146030.023,146119.30000000447,146046.69,149330.089,
空白時間1 (0.5秒),canvas.Screen,10_10_0,2023-01-09T23:27:12.896Z,,,b,,,270,500.0099999999802,timeout,e.jpg,,,149901.80000000447,149813.432,149313.422,149402.5,149330.089,149830.099,
注視(1秒),canvas.Screen,10_10_1,2023-01-09T23:27:13.897Z,,,b,,,270,999.9700000000012,timeout,e.jpg,,,150902.6000000015,150813.402,149813.432,149903.1000000015,149830.099,150830.069,
空白時間2 (0.5秒),canvas.Screen,10_10_2,2023-01-09T23:27:14.396Z,,,b,,,270,500.0100000000093,timeout,e.jpg,,,151402.1000000015,151313.412,150813.402,150902.8999999985,150830.069,151330.079,
刺激提示,canvas.Screen,10_10_3,2023-01-09T23:27:15.062Z,,,b,true,b,270,730.5210000014922,response,e.jpg,b,keypress(f),152067.5,152060.6000000015,151313.412,151402.30000000447,151330.079,151996.759,
フィードバック(0.5秒),canvas.Screen,10_10_4,2023-01-09T23:27:15.563Z,,,b,,,270,500.0100000000093,timeout,e.jpg,,,152568.70000000298,152480.102,151980.092,152069.20000000298,151996.759,152496.769,
トライアル,flow.Sequence,10_10,2023-01-09T23:27:15.563Z,,,b,,,270,3150.0130000000063,completion,e.jpg,,,152569.20000000298,152480.102,149313.422,149402.3999999985,149330.089,152496.769,
空白時間1 (0.5秒),canvas.Screen,10_11_0,2023-01-09T23:27:16.063Z,,,b,,,180,500.0100000000093,timeout,e.jpg,,,153069,152980.112,152480.102,152569.3999999985,152496.769,152996.779,
注視(1秒),canvas.Screen,10_11_1,2023-01-09T23:27:17.063Z,,,b,,,180,1000.0199999999895,timeout,e.jpg,,,154069,153980.132,152980.112,153069.3999999985,152996.779,153996.799,
空白時間2 (0.5秒),canvas.Screen,10_11_2,2023-01-09T23:27:17.563Z,,,b,,,180,500.0100000000093,timeout,e.jpg,,,154569.1000000015,154480.142,153980.132,154069.3999999985,153996.799,154496.809,
刺激提示,canvas.Screen,10_11_3,2023-01-09T23:27:18.243Z,,,b,true,b,180,745.7910000014817,response,e.jpg,b,keypress(f),155249.30000000447,155242.6000000015,154480.142,154569.6000000015,154496.809,155180.156,
フィードバック(0.5秒),canvas.Screen,10_11_4,2023-01-09T23:27:18.746Z,,,b,,,180,500.0100000000093,timeout,e.jpg,,,155752.3999999985,155663.499,155163.489,155265.8999999985,155180.156,155680.166,
トライアル,flow.Sequence,10_11,2023-01-09T23:27:18.747Z,,,b,,,180,3166.7300000000105,completion,e.jpg,,,155752.8999999985,155663.499,152480.102,152569.30000000447,152496.769,155680.166,
空白時間1 (0.5秒),canvas.Screen,10_12_0,2023-01-09T23:27:19.246Z,,,d,,,0,500.0100000000093,timeout,eR.jpg,,,156252.20000000298,156163.509,155663.499,155753.1000000015,155680.166,156180.176,
注視(1秒),canvas.Screen,10_12_1,2023-01-09T23:27:20.246Z,,,d,,,0,1000.0199999999895,timeout,eR.jpg,,,157252.6000000015,157163.529,156163.509,156252.6000000015,156180.176,157180.196,
空白時間2 (0.5秒),canvas.Screen,10_12_2,2023-01-09T23:27:20.746Z,,,d,,,0,500.0100000000093,timeout,eR.jpg,,,157752,157663.539,157163.529,157252.8999999985,157180.196,157680.206,
刺激提示,canvas.Screen,10_12_3,2023-01-09T23:27:21.270Z,,,d,true,d,0,588.3940000014845,response,eR.jpg,d,keypress(j),158276,158268.6000000015,157663.539,157752.3999999985,157680.206,158196.883,
フィードバック(0.5秒),canvas.Screen,10_12_4,2023-01-09T23:27:21.762Z,,,d,,,0,500.0100000000093,timeout,eR.jpg,,,158768.6000000015,158680.226,158180.216,158278.3999999985,158196.883,158696.893,
トライアル,flow.Sequence,10_12,2023-01-09T23:27:21.763Z,,,d,,,0,3000.0599999999977,completion,eR.jpg,,,158769,158680.226,155663.499,155753.1000000015,155680.166,158696.893,
空白時間1 (0.5秒),canvas.Screen,10_13_0,2023-01-09T23:27:22.263Z,,,d,,,135,500.0099999999802,timeout,eR.jpg,,,159269.30000000447,159180.236,158680.226,158769.20000000298,158696.893,159196.903,
注視(1秒),canvas.Screen,10_13_1,2023-01-09T23:27:23.262Z,,,d,,,135,1000.0200000000186,timeout,eR.jpg,,,160268.1000000015,160180.256,159180.236,159269.70000000298,159196.903,160196.923,
空白時間2 (0.5秒),canvas.Screen,10_13_2,2023-01-09T23:27:23.763Z,,,d,,,135,499.96099999998114,timeout,eR.jpg,,,160768.80000000447,160680.217,160180.256,160268.3999999985,160196.923,160696.884,
刺激提示,canvas.Screen,10_13_3,2023-01-09T23:27:24.571Z,,,d,true,d,135,872.2160000014992,response,eR.jpg,d,keypress(j),161577.1000000015,161569.1000000015,160680.217,160769.20000000298,160696.884,161513.567,
フィードバック(0.5秒),canvas.Screen,10_13_4,2023-01-09T23:27:25.080Z,,,d,,,135,500.0099999999802,timeout,eR.jpg,,,162086.1000000015,161996.91,161496.9,161594,161513.567,162013.577,
トライアル,flow.Sequence,10_13,2023-01-09T23:27:25.080Z,,,d,,,135,3300.0169999999925,completion,eR.jpg,,,162086.6000000015,161996.91,158680.226,158769.1000000015,158696.893,162013.577,
空白時間1 (0.5秒),canvas.Screen,10_14_0,2023-01-09T23:27:25.580Z,,,d,,,225,500.0100000000093,timeout,eR.jpg,,,162585.8999999985,162496.92,161996.91,162086.80000000447,162013.577,162513.587,
注視(1秒),canvas.Screen,10_14_1,2023-01-09T23:27:26.579Z,,,d,,,225,1000.0199999999895,timeout,eR.jpg,,,163585.3999999985,163496.94,162496.92,162586.30000000447,162513.587,163513.607,
空白時間2 (0.5秒),canvas.Screen,10_14_2,2023-01-09T23:27:27.079Z,,,d,,,225,500.0100000000093,timeout,eR.jpg,,,164085.6000000015,163996.95,163496.94,163585.80000000447,163513.607,164013.617,
刺激提示,canvas.Screen,10_14_3,2023-01-09T23:27:27.782Z,,,d,true,d,225,767.4830000014917,response,eR.jpg,d,keypress(j),164788.5,164781.1000000015,163996.95,164086,164013.617,164713.631,
フィードバック(0.5秒),canvas.Screen,10_14_4,2023-01-09T23:27:28.279Z,,,d,,,225,500.0100000000093,timeout,eR.jpg,,,165285.3999999985,165196.974,164696.964,164790.30000000447,164713.631,165213.641,
トライアル,flow.Sequence,10_14,2023-01-09T23:27:28.280Z,,,d,,,225,3183.396999999997,completion,eR.jpg,,,165285.8999999985,165196.974,161996.91,162086.80000000447,162013.577,165213.641,
空白時間1 (0.5秒),canvas.Screen,10_15_0,2023-01-09T23:27:28.779Z,,,d,,,270,500.0100000000093,timeout,eR.jpg,,,165785,165696.984,165196.974,165286.1000000015,165213.641,165713.651,
注視(1秒),canvas.Screen,10_15_1,2023-01-09T23:27:29.779Z,,,d,,,270,1000.0199999999895,timeout,eR.jpg,,,166785.5,166697.004,165696.984,165785.3999999985,165713.651,166713.671,
空白時間2 (0.5秒),canvas.Screen,10_15_2,2023-01-09T23:27:30.279Z,,,d,,,270,500.0100000000093,timeout,eR.jpg,,,167285.6000000015,167197.014,166697.004,166785.8999999985,166713.671,167213.681,
刺激提示,canvas.Screen,10_15_3,2023-01-09T23:27:30.837Z,,,d,true,d,270,623.1190000044589,response,eR.jpg,d,keypress(j),167843.8999999985,167836.80000000447,167197.014,167286,167213.681,167780.359,
フィードバック(0.5秒),canvas.Screen,10_15_4,2023-01-09T23:27:31.346Z,,,d,,,270,500.0100000000093,timeout,eR.jpg,,,168352.20000000298,168263.702,167763.692,167860.5,167780.359,168280.369,
トライアル,flow.Sequence,10_15,2023-01-09T23:27:31.346Z,,,d,,,270,3050.060999999987,completion,eR.jpg,,,168352.5,168263.702,165196.974,165286,165213.641,168280.369,
タスクのセット,flow.Loop,10,2023-01-09T23:27:31.346Z,,,,,,,51367.53499999999,completion,,,,168352.70000000298,168263.702,116879.5,116969.39999999851,116896.167,168280.369,
空白時間1 (0.5秒),canvas.Screen,11_0_0,2023-01-09T23:27:31.846Z,,,d,,,225,500.0099999999802,timeout,eR.jpg,,,168852.20000000298,168763.712,168263.702,168352.8999999985,168280.369,168780.379,
注視(1秒),canvas.Screen,11_0_1,2023-01-09T23:27:32.846Z,,,d,,,225,1000.0200000000186,timeout,eR.jpg,,,169852.3999999985,169763.732,168763.712,168852.6000000015,168780.379,169780.399,
空白時間2 (0.5秒),canvas.Screen,11_0_2,2023-01-09T23:27:33.346Z,,,d,,,225,500.0100000000093,timeout,eR.jpg,,,170352.6000000015,170263.742,169763.732,169852.80000000447,169780.399,170280.409,
刺激提示,canvas.Screen,11_0_3,2023-01-09T23:27:34.067Z,,,d,true,d,225,785.791000002966,response,eR.jpg,d,keypress(j),171073.3999999985,171066.20000000298,170263.742,170352.80000000447,170280.409,171013.703,
フィードバック(0.5秒),canvas.Screen,11_0_4,2023-01-09T23:27:34.579Z,,,d,,,225,500.0099999999802,timeout,eR.jpg,,,171585.5,171497.046,170997.036,171088.80000000447,171013.703,171513.713,
トライアル,flow.Sequence,11_0,2023-01-09T23:27:34.579Z,,,d,,,225,3216.676999999996,completion,eR.jpg,,,171585.8999999985,171497.046,168263.702,168352.8999999985,168280.369,171513.713,
空白時間1 (0.5秒),canvas.Screen,11_1_0,2023-01-09T23:27:35.079Z,,,d,,,270,500.0100000000093,timeout,eR.jpg,,,172085.30000000447,171997.056,171497.046,171586.1000000015,171513.713,172013.723,
注視(1秒),canvas.Screen,11_1_1,2023-01-09T23:27:36.079Z,,,d,,,270,1000.0199999999895,timeout,eR.jpg,,,173085.70000000298,172997.076,171997.056,172085.6000000015,172013.723,173013.743,
空白時間2 (0.5秒),canvas.Screen,11_1_2,2023-01-09T23:27:36.579Z,,,d,,,270,500.0100000000093,timeout,eR.jpg,,,173585.6000000015,173497.086,172997.076,173086,173013.743,173513.753,
刺激提示,canvas.Screen,11_1_3,2023-01-09T23:27:37.025Z,,,d,true,d,270,513.1469999985129,response,eR.jpg,d,keypress(j),174031.5,174026.8999999985,173497.086,173586,173513.753,173963.762,
フィードバック(0.5秒),canvas.Screen,11_1_4,2023-01-09T23:27:37.529Z,,,d,,,270,500.0100000000093,timeout,eR.jpg,,,174535.80000000447,174447.105,173947.095,174033.6000000015,173963.762,174463.772,
トライアル,flow.Sequence,11_1,2023-01-09T23:27:37.530Z,,,d,,,270,2933.3920000000217,completion,eR.jpg,,,174536.30000000447,174447.105,171497.046,171586.1000000015,171513.713,174463.772,
空白時間1 (0.5秒),canvas.Screen,11_2_0,2023-01-09T23:27:38.029Z,,,d,,,0,500.0100000000093,timeout,eR.jpg,,,175035.80000000447,174947.115,174447.105,174536.6000000015,174463.772,174963.782,
注視(1秒),canvas.Screen,11_2_1,2023-01-09T23:27:39.028Z,,,d,,,0,1000.0199999999895,timeout,eR.jpg,,,176034.8999999985,175947.135,174947.115,175036.1000000015,174963.782,175963.802,
空白時間2 (0.5秒),canvas.Screen,11_2_2,2023-01-09T23:27:39.529Z,,,d,,,0,500.0100000000093,timeout,eR.jpg,,,176536.1000000015,176447.145,175947.135,176035.20000000298,175963.802,176463.812,
刺激提示,canvas.Screen,11_2_3,2023-01-09T23:27:40.144Z,,,d,true,d,0,680.488000004465,response,eR.jpg,d,keypress(j),177150.70000000298,177144.30000000447,176447.145,176536.3999999985,176463.812,177080.491,
フィードバック(0.5秒),canvas.Screen,11_2_4,2023-01-09T23:27:40.646Z,,,d,,,0,500.0099999999802,timeout,eR.jpg,,,177652.80000000447,177563.834,177063.824,177166.20000000298,177080.491,177580.501,
トライアル,flow.Sequence,11_2,2023-01-09T23:27:40.647Z,,,d,,,0,3100.0620000000054,completion,eR.jpg,,,177653.20000000298,177563.834,174447.105,174536.5,174463.772,177580.501,
空白時間1 (0.5秒),canvas.Screen,11_3_0,2023-01-09T23:27:41.146Z,,,d,,,90,500.0100000000093,timeout,eR.jpg,,,178153,178063.844,177563.834,177653.5,177580.501,178080.511,
注視(1秒),canvas.Screen,11_3_1,2023-01-09T23:27:42.146Z,,,d,,,90,1000.0199999999895,timeout,eR.jpg,,,179152.80000000447,179063.864,178063.844,178153.3999999985,178080.511,179080.531,
空白時間2 (0.5秒),canvas.Screen,11_3_2,2023-01-09T23:27:42.646Z,,,d,,,90,500.0100000000093,timeout,eR.jpg,,,179652.3999999985,179563.874,179063.864,179153.20000000298,179080.531,179580.541,
刺激提示,canvas.Screen,11_3_3,2023-01-09T23:27:43.269Z,,,d,true,d,90,687.0590000014927,response,eR.jpg,d,keypress(j),180276,180267.6000000015,179563.874,179652.80000000447,179580.541,180197.22,
フィードバック(0.5秒),canvas.Screen,11_3_4,2023-01-09T23:27:43.763Z,,,d,,,90,500.0100000000093,timeout,eR.jpg,,,180769.70000000298,180680.563,180180.553,180277.70000000298,180197.22,180697.23,
トライアル,flow.Sequence,11_3,2023-01-09T23:27:43.763Z,,,d,,,90,3100.0620000000054,completion,eR.jpg,,,180770,180680.563,177563.834,177653.3999999985,177580.501,180697.23,
空白時間1 (0.5秒),canvas.Screen,11_4_0,2023-01-09T23:27:44.262Z,,,b,,,135,499.95799999998417,timeout,e.jpg,,,181268.8999999985,181180.521,180680.563,180770.30000000447,180697.23,181197.188,
注視(1秒),canvas.Screen,11_4_1,2023-01-09T23:27:45.263Z,,,b,,,135,1000.0200000000186,timeout,e.jpg,,,182269.5,182180.541,181180.521,181269.30000000447,181197.188,182197.208,
空白時間2 (0.5秒),canvas.Screen,11_4_2,2023-01-09T23:27:45.762Z,,,b,,,135,500.0099999999802,timeout,e.jpg,,,182769.20000000298,182680.551,182180.541,182269.8999999985,182197.208,182697.218,
刺激提示,canvas.Screen,11_4_3,2023-01-09T23:27:46.483Z,,,b,true,b,135,785.8820000014966,response,e.jpg,b,keypress(f),183490.1000000015,183483.1000000015,182680.551,182769.5,182697.218,183430.566,
フィードバック(0.5秒),canvas.Screen,11_4_4,2023-01-09T23:27:46.996Z,,,b,,,135,500.0100000000093,timeout,e.jpg,,,184002.8999999985,183913.909,183413.899,183506,183430.566,183930.576,
トライアル,flow.Sequence,11_4,2023-01-09T23:27:46.997Z,,,b,,,135,3216.6790000000037,completion,e.jpg,,,184003.30000000447,183913.909,180680.563,180770.20000000298,180697.23,183930.576,
空白時間1 (0.5秒),canvas.Screen,11_5_0,2023-01-09T23:27:47.496Z,,,b,,,180,500.0100000000093,timeout,e.jpg,,,184502.5,184413.919,183913.909,184003.5,183930.576,184430.586,
注視(1秒),canvas.Screen,11_5_1,2023-01-09T23:27:48.496Z,,,b,,,180,1000.0199999999895,timeout,e.jpg,,,185502.6000000015,185413.939,184413.919,184502.80000000447,184430.586,185430.606,
空白時間2 (0.5秒),canvas.Screen,11_5_2,2023-01-09T23:27:48.995Z,,,b,,,180,500.0100000000093,timeout,e.jpg,,,186001.5,185913.949,185413.939,185502.8999999985,185430.606,185930.616,
刺激提示,canvas.Screen,11_5_3,2023-01-09T23:27:49.909Z,,,b,true,b,180,977.7839999985008,response,e.jpg,b,keypress(f),186915.80000000447,186908.3999999985,185913.949,186001.80000000447,185930.616,186847.301,
フィードバック(0.5秒),canvas.Screen,11_5_4,2023-01-09T23:27:50.413Z,,,b,,,180,500.0099999999802,timeout,e.jpg,,,187419.6000000015,187330.644,186830.634,186930.80000000447,186847.301,187347.311,
トライアル,flow.Sequence,11_5,2023-01-09T23:27:50.413Z,,,b,,,180,3400.0679999999993,completion,e.jpg,,,187420.1000000015,187330.644,183913.909,184003.3999999985,183930.576,187347.311,
空白時間1 (0.5秒),canvas.Screen,11_6_0,2023-01-09T23:27:50.913Z,,,d,,,135,500.0100000000093,timeout,eR.jpg,,,187920,187830.654,187330.644,187420.3999999985,187347.311,187847.321,
注視(1秒),canvas.Screen,11_6_1,2023-01-09T23:27:51.912Z,,,d,,,135,1000.0199999999895,timeout,eR.jpg,,,188919.30000000447,188830.674,187830.654,187920.30000000447,187847.321,188847.341,
空白時間2 (0.5秒),canvas.Screen,11_6_2,2023-01-09T23:27:52.412Z,,,d,,,135,500.0100000000093,timeout,eR.jpg,,,189419.30000000447,189330.684,188830.674,188919.6000000015,188847.341,189347.351,
刺激提示,canvas.Screen,11_6_3,2023-01-09T23:27:53.159Z,,,d,true,d,135,810.6490000000049,response,eR.jpg,d,keypress(j),190165.5,190158,189330.684,189419.70000000298,189347.351,190097.366,
フィードバック(0.5秒),canvas.Screen,11_6_4,2023-01-09T23:27:53.662Z,,,d,,,135,500.0099999999802,timeout,eR.jpg,,,190669.30000000447,190580.709,190080.699,190167.1000000015,190097.366,190597.376,
トライアル,flow.Sequence,11_6,2023-01-09T23:27:53.663Z,,,d,,,135,3233.3980000000156,completion,eR.jpg,,,190669.70000000298,190580.709,187330.644,187420.20000000298,187347.311,190597.376,
空白時間1 (0.5秒),canvas.Screen,11_7_0,2023-01-09T23:27:54.162Z,,,d,,,45,500.0100000000093,timeout,eR.jpg,,,191169.1000000015,191080.719,190580.709,190670,190597.376,191097.386,
注視(1秒),canvas.Screen,11_7_1,2023-01-09T23:27:55.163Z,,,d,,,45,1000.3030000000144,timeout,eR.jpg,,,192169.8999999985,192081.022,191080.719,191169.3999999985,191097.386,192097.689,
空白時間2 (0.5秒),canvas.Screen,11_7_2,2023-01-09T23:27:55.663Z,,,d,,,45,500.0099999999802,timeout,eR.jpg,,,192669.80000000447,192581.032,192081.022,192170.30000000447,192097.689,192597.699,
刺激提示,canvas.Screen,11_7_3,2023-01-09T23:27:56.436Z,,,d,true,d,45,839.2009999985166,response,eR.jpg,d,keypress(j),193443.1000000015,193436.8999999985,192581.032,192670.20000000298,192597.699,193381.048,
フィードバック(0.5秒),canvas.Screen,11_7_4,2023-01-09T23:27:56.946Z,,,d,,,45,500.0099999999802,timeout,eR.jpg,,,193953.20000000298,193864.391,193364.381,193459.1000000015,193381.048,193881.058,
トライアル,flow.Sequence,11_7,2023-01-09T23:27:56.947Z,,,d,,,45,3267.015000000014,completion,eR.jpg,,,193953.70000000298,193864.391,190580.709,190669.8999999985,190597.376,193881.058,
空白時間1 (0.5秒),canvas.Screen,11_8_0,2023-01-09T23:27:57.445Z,,,d,,,315,500.0100000000093,timeout,eR.jpg,,,194452.1000000015,194364.401,193864.391,193953.8999999985,193881.058,194381.068,
注視(1秒),canvas.Screen,11_8_1,2023-01-09T23:27:58.446Z,,,d,,,315,1000.0199999999895,timeout,eR.jpg,,,195452.8999999985,195364.421,194364.401,194452.30000000447,194381.068,195381.088,
空白時間2 (0.5秒),canvas.Screen,11_8_2,2023-01-09T23:27:58.946Z,,,d,,,315,500.0100000000093,timeout,eR.jpg,,,195953.5,195864.431,195364.421,195453.30000000447,195381.088,195881.098,
刺激提示,canvas.Screen,11_8_3,2023-01-09T23:27:59.598Z,,,d,true,d,315,717.502000001492,response,eR.jpg,d,keypress(j),196604.80000000447,196598.6000000015,195864.431,195953.8999999985,195881.098,196531.111,
フィードバック(0.5秒),canvas.Screen,11_8_4,2023-01-09T23:28:00.096Z,,,d,,,315,500.0100000000093,timeout,eR.jpg,,,197102.80000000447,197014.454,196514.444,196607.30000000447,196531.111,197031.121,
トライアル,flow.Sequence,11_8,2023-01-09T23:28:00.096Z,,,d,,,315,3133.396000000008,completion,eR.jpg,,,197103.1000000015,197014.454,193864.391,193953.80000000447,193881.058,197031.121,
空白時間1 (0.5秒),canvas.Screen,11_9_0,2023-01-09T23:28:00.596Z,,,b,,,90,500.0099999999802,timeout,e.jpg,,,197602.8999999985,197514.464,197014.454,197103.30000000447,197031.121,197531.131,
注視(1秒),canvas.Screen,11_9_1,2023-01-09T23:28:01.596Z,,,b,,,90,1000.0200000000186,timeout,e.jpg,,,198603.20000000298,198514.484,197514.464,197603.20000000298,197531.131,198531.151,
空白時間2 (0.5秒),canvas.Screen,11_9_2,2023-01-09T23:28:02.096Z,,,b,,,90,500.0099999999802,timeout,e.jpg,,,199103.30000000447,199014.494,198514.484,198603.5,198531.151,199031.161,
刺激提示,canvas.Screen,11_9_3,2023-01-09T23:28:02.674Z,,,b,true,b,90,644.0390000029874,response,e.jpg,b,keypress(f),199680.8999999985,199675.20000000298,199014.494,199103.70000000298,199031.161,199614.506,
フィードバック(0.5秒),canvas.Screen,11_9_4,2023-01-09T23:28:03.180Z,,,b,,,90,500.0100000000093,timeout,e.jpg,,,200186.70000000298,200097.849,199597.839,199696,199614.506,200114.516,
トライアル,flow.Sequence,11_9,2023-01-09T23:28:03.180Z,,,b,,,90,3066.7279999999737,completion,e.jpg,,,200187.1000000015,200097.849,197014.454,197103.30000000447,197031.121,200114.516,
空白時間1 (0.5秒),canvas.Screen,11_10_0,2023-01-09T23:28:03.679Z,,,b,,,270,500.0100000000093,timeout,e.jpg,,,200686.3999999985,200597.859,200097.849,200187.3999999985,200114.516,200614.526,
注視(1秒),canvas.Screen,11_10_1,2023-01-09T23:28:04.680Z,,,b,,,270,1000.0199999999895,timeout,e.jpg,,,201686.8999999985,201597.879,200597.859,200686.80000000447,200614.526,201614.546,
空白時間2 (0.5秒),canvas.Screen,11_10_2,2023-01-09T23:28:05.180Z,,,b,,,270,500.02599999998347,timeout,e.jpg,,,202186.8999999985,202097.905,201597.879,201687.20000000298,201614.546,202114.572,
刺激提示,canvas.Screen,11_10_3,2023-01-09T23:28:05.896Z,,,b,true,b,270,782.2280000044848,response,e.jpg,b,keypress(f),202903.3999999985,202896.80000000447,202097.905,202187.30000000447,202114.572,202831.253,
フィードバック(0.5秒),canvas.Screen,11_10_4,2023-01-09T23:28:06.397Z,,,b,,,270,500.0100000000093,timeout,e.jpg,,,203403.80000000447,203314.596,202814.586,202905.70000000298,202831.253,203331.263,
トライアル,flow.Sequence,11_10,2023-01-09T23:28:06.397Z,,,b,,,270,3200.079999999987,completion,e.jpg,,,203404.30000000447,203314.596,200097.849,200187.30000000447,200114.516,203331.263,
空白時間1 (0.5秒),canvas.Screen,11_11_0,2023-01-09T23:28:06.896Z,,,d,,,180,500.0099999999802,timeout,eR.jpg,,,203903.1000000015,203814.606,203314.596,203404.6000000015,203331.263,203831.273,
注視(1秒),canvas.Screen,11_11_1,2023-01-09T23:28:07.896Z,,,d,,,180,1000.0200000000186,timeout,eR.jpg,,,204903,204814.626,203814.606,203903.6000000015,203831.273,204831.293,
空白時間2 (0.5秒),canvas.Screen,11_11_2,2023-01-09T23:28:08.397Z,,,d,,,180,500.0100000000093,timeout,eR.jpg,,,205403.80000000447,205314.636,204814.626,204903.30000000447,204831.293,205331.303,
刺激提示,canvas.Screen,11_11_3,2023-01-09T23:28:08.978Z,,,d,true,d,180,646.6969999999856,response,eR.jpg,d,keypress(j),205985.1000000015,205978,205314.636,205404.30000000447,205331.303,205931.315,
フィードバック(0.5秒),canvas.Screen,11_11_4,2023-01-09T23:28:09.496Z,,,d,,,180,500.0100000000093,timeout,eR.jpg,,,206503,206414.658,205914.648,206002,205931.315,206431.325,
トライアル,flow.Sequence,11_11,2023-01-09T23:28:09.496Z,,,d,,,180,3083.3949999999895,completion,eR.jpg,,,206503.5,206414.658,203314.596,203404.3999999985,203331.263,206431.325,
空白時間1 (0.5秒),canvas.Screen,11_12_0,2023-01-09T23:28:09.996Z,,,b,,,0,500.0099999999802,timeout,e.jpg,,,207003.30000000447,206914.668,206414.658,206503.70000000298,206431.325,206931.335,
注視(1秒),canvas.Screen,11_12_1,2023-01-09T23:28:10.996Z,,,b,,,0,1000.0200000000186,timeout,e.jpg,,,208003.80000000447,207914.688,206914.668,207003.70000000298,206931.335,207931.355,
空白時間2 (0.5秒),canvas.Screen,11_12_2,2023-01-09T23:28:11.497Z,,,b,,,0,500.0099999999802,timeout,e.jpg,,,208503.8999999985,208414.698,207914.688,208004.1000000015,207931.355,208431.365,
刺激提示,canvas.Screen,11_12_3,2023-01-09T23:28:12.009Z,,,b,true,b,0,578.6350000000093,response,e.jpg,b,keypress(f),209016.6000000015,209010,208414.698,208504.3999999985,208431.365,208948.042,
フィードバック(0.5秒),canvas.Screen,11_12_4,2023-01-09T23:28:12.513Z,,,b,,,0,500.0100000000093,timeout,e.jpg,,,209519.8999999985,209431.385,208931.375,209031.80000000447,208948.042,209448.052,
トライアル,flow.Sequence,11_12,2023-01-09T23:28:12.513Z,,,b,,,0,3000.0599999999977,completion,e.jpg,,,209520.30000000447,209431.385,206414.658,206503.6000000015,206431.325,209448.052,
空白時間1 (0.5秒),canvas.Screen,11_13_0,2023-01-09T23:28:13.012Z,,,b,,,45,500.0100000000093,timeout,e.jpg,,,210019.80000000447,209931.395,209431.385,209520.6000000015,209448.052,209948.062,
注視(1秒),canvas.Screen,11_13_1,2023-01-09T23:28:14.012Z,,,b,,,45,1000.0199999999895,timeout,e.jpg,,,211019.8999999985,210931.415,209931.395,210020.20000000298,209948.062,210948.082,
空白時間2 (0.5秒),canvas.Screen,11_13_2,2023-01-09T23:28:14.513Z,,,b,,,45,500.0100000000093,timeout,e.jpg,,,211520.3999999985,211431.425,210931.415,211020.20000000298,210948.082,211448.092,
刺激提示,canvas.Screen,11_13_3,2023-01-09T23:28:14.974Z,,,b,true,b,45,527.7080000044662,response,e.jpg,b,keypress(f),211981.8999999985,211975.80000000447,211431.425,211520.70000000298,211448.092,211914.768,
フィードバック(0.5秒),canvas.Screen,11_13_4,2023-01-09T23:28:15.479Z,,,b,,,45,500.0309999999881,timeout,e.jpg,,,212486.80000000447,212398.132,211898.101,211984.3999999985,211914.768,212414.799,
トライアル,flow.Sequence,11_13,2023-01-09T23:28:15.480Z,,,b,,,45,2950.0800000000163,completion,e.jpg,,,212487.30000000447,212398.132,209431.385,209520.5,209448.052,212414.799,
空白時間1 (0.5秒),canvas.Screen,11_14_0,2023-01-09T23:28:15.979Z,,,b,,,315,500.0100000000093,timeout,e.jpg,,,212986.70000000298,212898.142,212398.132,212487.5,212414.799,212914.809,
注視(1秒),canvas.Screen,11_14_1,2023-01-09T23:28:16.980Z,,,b,,,315,1000.0199999999895,timeout,e.jpg,,,213987.20000000298,213898.162,212898.142,212987,212914.809,213914.829,
空白時間2 (0.5秒),canvas.Screen,11_14_2,2023-01-09T23:28:17.479Z,,,b,,,315,500.0100000000093,timeout,e.jpg,,,214486.80000000447,214398.172,213898.162,213987.6000000015,213914.829,214414.839,
刺激提示,canvas.Screen,11_14_3,2023-01-09T23:28:17.967Z,,,b,true,b,315,552.861000002973,response,e.jpg,b,keypress(f),214974.1000000015,214967.70000000298,214398.172,214487.1000000015,214414.839,214914.849,
フィードバック(0.5秒),canvas.Screen,11_14_4,2023-01-09T23:28:18.479Z,,,b,,,315,500.0100000000093,timeout,e.jpg,,,215486.5,215398.192,214898.182,214990.80000000447,214914.849,215414.859,
トライアル,flow.Sequence,11_14,2023-01-09T23:28:18.479Z,,,b,,,315,2983.393000000011,completion,e.jpg,,,215486.8999999985,215398.192,212398.132,212487.5,212414.799,215414.859,
空白時間1 (0.5秒),canvas.Screen,11_15_0,2023-01-09T23:28:18.979Z,,,b,,,225,500.0100000000093,timeout,e.jpg,,,215987,215898.202,215398.192,215487.20000000298,215414.859,215914.869,
注視(1秒),canvas.Screen,11_15_1,2023-01-09T23:28:19.979Z,,,b,,,225,1000.0199999999895,timeout,e.jpg,,,216986.8999999985,216898.222,215898.202,215987.30000000447,215914.869,216914.889,
空白時間2 (0.5秒),canvas.Screen,11_15_2,2023-01-09T23:28:20.479Z,,,b,,,225,500.0100000000093,timeout,e.jpg,,,217486.8999999985,217398.232,216898.222,216987.20000000298,216914.889,217414.899,
刺激提示,canvas.Screen,11_15_3,2023-01-09T23:28:21.346Z,,,b,true,b,225,932.500999998505,response,e.jpg,b,keypress(f),218354.1000000015,218347.3999999985,217398.232,217487.30000000447,217414.899,218281.583,
フィードバック(0.5秒),canvas.Screen,11_15_4,2023-01-09T23:28:21.845Z,,,b,,,225,500.0099999999802,timeout,e.jpg,,,218853,218764.926,218264.916,218356.6000000015,218281.583,218781.593,
トライアル,flow.Sequence,11_15,2023-01-09T23:28:21.846Z,,,b,,,225,3350.06700000001,completion,e.jpg,,,218853.5,218764.926,215398.192,215487,215414.859,218781.593,
タスクのセット,flow.Loop,11,2023-01-09T23:28:21.846Z,,,,,,,50484.557,completion,,,,218853.80000000447,218764.926,168263.702,168352.80000000447,168280.369,218781.593,
空白時間1 (0.5秒),canvas.Screen,12_0_0,2023-01-09T23:28:22.346Z,,,b,,,180,500.0100000000093,timeout,e.jpg,,,219353.3999999985,219264.936,218764.926,218854,218781.593,219281.603,
注視(1秒),canvas.Screen,12_0_1,2023-01-09T23:28:23.346Z,,,b,,,180,1000.0199999999895,timeout,e.jpg,,,220353.8999999985,220264.956,219264.936,219353.6000000015,219281.603,220281.623,
空白時間2 (0.5秒),canvas.Screen,12_0_2,2023-01-09T23:28:23.846Z,,,b,,,180,500.0100000000093,timeout,e.jpg,,,220854.1000000015,220764.966,220264.956,220354.20000000298,220281.623,220781.633,
刺激提示,canvas.Screen,12_0_3,2023-01-09T23:28:24.578Z,,,b,true,b,180,796.5670000029786,response,e.jpg,b,keypress(f),221585.30000000447,221578.20000000298,220764.966,220854.3999999985,220781.633,221531.648,
フィードバック(0.5秒),canvas.Screen,12_0_4,2023-01-09T23:28:25.096Z,,,b,,,180,500.0100000000093,timeout,e.jpg,,,222103.5,222014.991,221514.981,221601.6000000015,221531.648,222031.658,
トライアル,flow.Sequence,12_0,2023-01-09T23:28:25.096Z,,,b,,,180,3233.3980000000156,completion,e.jpg,,,222103.8999999985,222014.991,218764.926,218854,218781.593,222031.658,
空白時間1 (0.5秒),canvas.Screen,12_1_0,2023-01-09T23:28:25.596Z,,,b,,,0,500.0100000000093,timeout,e.jpg,,,222603.70000000298,222515.001,222014.991,222104.20000000298,222031.658,222531.668,
注視(1秒),canvas.Screen,12_1_1,2023-01-09T23:28:26.597Z,,,b,,,0,1000.0199999999895,timeout,e.jpg,,,223604.30000000447,223515.021,222515.001,222604.1000000015,222531.668,223531.688,
空白時間2 (0.5秒),canvas.Screen,12_1_2,2023-01-09T23:28:27.096Z,,,b,,,0,500.0100000000093,timeout,e.jpg,,,224103.70000000298,224015.031,223515.021,223604.6000000015,223531.688,224031.698,
刺激提示,canvas.Screen,12_1_3,2023-01-09T23:28:27.561Z,,,b,true,b,0,529.9020000014862,response,e.jpg,b,keypress(f),224569,224561.6000000015,224015.031,224104,224031.698,224498.374,
フィードバック(0.5秒),canvas.Screen,12_1_4,2023-01-09T23:28:28.062Z,,,b,,,0,500.0099999999802,timeout,e.jpg,,,225070.1000000015,224981.717,224481.707,224570.80000000447,224498.374,224998.384,
トライアル,flow.Sequence,12_1,2023-01-09T23:28:28.063Z,,,b,,,0,2950.0590000000084,completion,e.jpg,,,225070.5,224981.717,222014.991,222104,222031.658,224998.384,
空白時間1 (0.5秒),canvas.Screen,12_2_0,2023-01-09T23:28:28.562Z,,,b,,,270,500.0100000000093,timeout,e.jpg,,,225570.20000000298,225481.727,224981.717,225070.70000000298,224998.384,225498.394,
注視(1秒),canvas.Screen,12_2_1,2023-01-09T23:28:29.563Z,,,b,,,270,1000.0199999999895,timeout,e.jpg,,,226570.3999999985,226481.747,225481.727,225570.6000000015,225498.394,226498.414,
空白時間2 (0.5秒),canvas.Screen,12_2_2,2023-01-09T23:28:30.063Z,,,b,,,270,500.0100000000093,timeout,e.jpg,,,227070.6000000015,226981.757,226481.747,226570.70000000298,226498.414,226998.424,
刺激提示,canvas.Screen,12_2_3,2023-01-09T23:28:30.517Z,,,b,true,b,270,518.7760000029812,response,e.jpg,b,keypress(f),227524.6000000015,227517.20000000298,226981.757,227071,226998.424,227465.1,
フィードバック(0.5秒),canvas.Screen,12_2_4,2023-01-09T23:28:31.029Z,,,b,,,270,500.0099999999802,timeout,e.jpg,,,228037.20000000298,227948.443,227448.433,227540.20000000298,227465.1,227965.11,
トライアル,flow.Sequence,12_2,2023-01-09T23:28:31.030Z,,,b,,,270,2950.0590000000084,completion,e.jpg,,,228037.70000000298,227948.443,224981.717,225070.6000000015,224998.384,227965.11,
空白時間1 (0.5秒),canvas.Screen,12_3_0,2023-01-09T23:28:31.529Z,,,d,,,135,500.0100000000093,timeout,eR.jpg,,,228536.8999999985,228448.453,227948.443,228038,227965.11,228465.12,
注視(1秒),canvas.Screen,12_3_1,2023-01-09T23:28:32.529Z,,,d,,,135,1000.0200000000186,timeout,eR.jpg,,,229536.8999999985,229448.473,228448.453,228537.20000000298,228465.12,229465.14,
空白時間2 (0.5秒),canvas.Screen,12_3_2,2023-01-09T23:28:33.029Z,,,d,,,135,500.0099999999802,timeout,eR.jpg,,,230036.8999999985,229948.483,229448.473,229537.30000000447,229465.14,229965.15,
刺激提示,canvas.Screen,12_3_3,2023-01-09T23:28:33.985Z,,,d,true,d,135,1021.050000002986,response,eR.jpg,d,keypress(j),230993.1000000015,230986.20000000298,229948.483,230037.30000000447,229965.15,230931.836,
フィードバック(0.5秒),canvas.Screen,12_3_4,2023-01-09T23:28:34.496Z,,,d,,,135,500.0099999999802,timeout,eR.jpg,,,231503.80000000447,231415.179,230915.169,231008.6000000015,230931.836,231431.846,
トライアル,flow.Sequence,12_3,2023-01-09T23:28:34.496Z,,,d,,,135,3450.0690000000177,completion,eR.jpg,,,231504.1000000015,231415.179,227948.443,228037.8999999985,227965.11,231431.846,
空白時間1 (0.5秒),canvas.Screen,12_4_0,2023-01-09T23:28:34.996Z,,,b,,,225,500.0100000000093,timeout,e.jpg,,,232003.70000000298,231915.189,231415.179,231504.30000000447,231431.846,231931.856,
注視(1秒),canvas.Screen,12_4_1,2023-01-09T23:28:35.996Z,,,b,,,225,1000.0199999999895,timeout,e.jpg,,,233004,232915.209,231915.189,232004.1000000015,231931.856,232931.876,
空白時間2 (0.5秒),canvas.Screen,12_4_2,2023-01-09T23:28:36.495Z,,,b,,,225,500.012000000017,timeout,e.jpg,,,233503.5,233415.221,232915.209,233004.20000000298,232931.876,233431.888,
刺激提示,canvas.Screen,12_4_3,2023-01-09T23:28:37.476Z,,,b,true,b,225,1047.2120000014838,response,e.jpg,b,keypress(f),234484.20000000298,234479.1000000015,233415.221,233503.8999999985,233431.888,234415.241,
フィードバック(0.5秒),canvas.Screen,12_4_4,2023-01-09T23:28:37.980Z,,,b,,,225,500.0099999999802,timeout,e.jpg,,,234987.80000000447,234898.584,234398.574,234485.5,234415.241,234915.251,
トライアル,flow.Sequence,12_4,2023-01-09T23:28:37.980Z,,,b,,,225,3466.738000000012,completion,e.jpg,,,234988.20000000298,234898.584,231415.179,231504.30000000447,231431.846,234915.251,
空白時間1 (0.5秒),canvas.Screen,12_5_0,2023-01-09T23:28:38.479Z,,,d,,,270,500.0100000000093,timeout,eR.jpg,,,235487.1000000015,235398.594,234898.584,234988.3999999985,234915.251,235415.261,
注視(1秒),canvas.Screen,12_5_1,2023-01-09T23:28:39.479Z,,,d,,,270,1000.0199999999895,timeout,eR.jpg,,,236487.20000000298,236398.614,235398.594,235487.5,235415.261,236415.281,
空白時間2 (0.5秒),canvas.Screen,12_5_2,2023-01-09T23:28:39.979Z,,,d,,,270,500.0100000000093,timeout,eR.jpg,,,236987.30000000447,236898.624,236398.614,236487.5,236415.281,236915.291,
刺激提示,canvas.Screen,12_5_3,2023-01-09T23:28:40.505Z,,,d,true,d,270,590.9090000029828,response,eR.jpg,d,keypress(j),237513.5,237506.20000000298,236898.624,236987.70000000298,236915.291,237448.635,
フィードバック(0.5秒),canvas.Screen,12_5_4,2023-01-09T23:28:41.013Z,,,d,,,270,500.0099999999802,timeout,eR.jpg,,,238021.1000000015,237931.978,237431.968,237528.70000000298,237448.635,237948.645,
トライアル,flow.Sequence,12_5,2023-01-09T23:28:41.013Z,,,d,,,270,3016.7270000000135,completion,eR.jpg,,,238021.6000000015,237931.978,234898.584,234988.3999999985,234915.251,237948.645,
空白時間1 (0.5秒),canvas.Screen,12_6_0,2023-01-09T23:28:41.512Z,,,b,,,45,500.0100000000093,timeout,e.jpg,,,238520.6000000015,238431.988,237931.978,238021.8999999985,237948.645,238448.655,
注視(1秒),canvas.Screen,12_6_1,2023-01-09T23:28:42.513Z,,,b,,,45,1000.0199999999895,timeout,e.jpg,,,239520.80000000447,239432.008,238431.988,238520.8999999985,238448.655,239448.675,
空白時間2 (0.5秒),canvas.Screen,12_6_2,2023-01-09T23:28:43.013Z,,,b,,,45,500.0100000000093,timeout,e.jpg,,,240021,239932.018,239432.008,239521.20000000298,239448.675,239948.685,
刺激提示,canvas.Screen,12_6_3,2023-01-09T23:28:43.484Z,,,b,true,b,45,537.4150000014924,response,e.jpg,b,keypress(f),240492.20000000298,240486.1000000015,239932.018,240021.3999999985,239948.685,240415.361,
フィードバック(0.5秒),canvas.Screen,12_6_4,2023-01-09T23:28:43.979Z,,,b,,,45,500.0100000000093,timeout,e.jpg,,,240987.1000000015,240898.704,240398.694,240495.20000000298,240415.361,240915.371,
トライアル,flow.Sequence,12_6,2023-01-09T23:28:43.979Z,,,b,,,45,2950.0590000000084,completion,e.jpg,,,240987.6000000015,240898.704,237931.978,238021.80000000447,237948.645,240915.371,
空白時間1 (0.5秒),canvas.Screen,12_7_0,2023-01-09T23:28:44.479Z,,,d,,,315,500.0099999999802,timeout,eR.jpg,,,241487.70000000298,241398.714,240898.704,240987.80000000447,240915.371,241415.381,
注視(1秒),canvas.Screen,12_7_1,2023-01-09T23:28:45.480Z,,,d,,,315,1000.0200000000186,timeout,eR.jpg,,,242487.70000000298,242398.734,241398.714,241488,241415.381,242415.401,
空白時間2 (0.5秒),canvas.Screen,12_7_2,2023-01-09T23:28:45.980Z,,,d,,,315,500.0099999999802,timeout,eR.jpg,,,242988.6000000015,242898.744,242398.734,242488.20000000298,242415.401,242915.411,
刺激提示,canvas.Screen,12_7_3,2023-01-09T23:28:46.548Z,,,d,true,d,315,633.2890000029874,response,eR.jpg,d,keypress(j),243556.20000000298,243548.70000000298,242898.744,242988.80000000447,242915.411,243498.756,
フィードバック(0.5秒),canvas.Screen,12_7_4,2023-01-09T23:28:47.063Z,,,d,,,315,500.00900000002,timeout,eR.jpg,,,244071.30000000447,243982.098,243482.089,243571.80000000447,243498.756,243998.765,
トライアル,flow.Sequence,12_7,2023-01-09T23:28:47.063Z,,,d,,,315,3066.7269999999844,completion,eR.jpg,,,244071.80000000447,243982.098,240898.704,240987.6000000015,240915.371,243998.765,
空白時間1 (0.5秒),canvas.Screen,12_8_0,2023-01-09T23:28:47.561Z,,,d,,,180,500.0099999999802,timeout,eR.jpg,,,244569.6000000015,244482.108,243982.098,244072.1000000015,243998.765,244498.775,
注視(1秒),canvas.Screen,12_8_1,2023-01-09T23:28:48.563Z,,,d,,,180,1000.0200000000186,timeout,eR.jpg,,,245571,245482.128,244482.108,244569.80000000447,244498.775,245498.795,
空白時間2 (0.5秒),canvas.Screen,12_8_2,2023-01-09T23:28:49.062Z,,,d,,,180,500.0099999999802,timeout,eR.jpg,,,246070.80000000447,245982.138,245482.128,245571.30000000447,245498.795,245998.805,
刺激提示,canvas.Screen,12_8_3,2023-01-09T23:28:49.743Z,,,d,false,d,180,745.9950000044773,response,eR.jpg,b,keypress(f),246751.20000000298,246744.80000000447,245982.138,246071,245998.805,246682.152,
フィードバック(0.5秒),canvas.Screen,12_8_4,2023-01-09T23:28:50.245Z,,,d,,,180,500.0100000000093,timeout,eR.jpg,,,247253.30000000447,247165.495,246665.485,246753.6000000015,246682.152,247182.162,
トライアル,flow.Sequence,12_8,2023-01-09T23:28:50.245Z,,,d,,,180,3166.7299999999814,completion,eR.jpg,,,247253.80000000447,247165.495,243982.098,244072,243998.765,247182.162,
空白時間1 (0.5秒),canvas.Screen,12_9_0,2023-01-09T23:28:50.746Z,,,d,,,90,500.0099999999802,timeout,eR.jpg,,,247754.80000000447,247665.505,247165.495,247254,247182.162,247682.172,
注視(1秒),canvas.Screen,12_9_1,2023-01-09T23:28:51.746Z,,,d,,,90,1000.0200000000186,timeout,eR.jpg,,,248754.80000000447,248665.525,247665.505,247755.1000000015,247682.172,248682.192,
空白時間2 (0.5秒),canvas.Screen,12_9_2,2023-01-09T23:28:52.246Z,,,d,,,90,500.0099999999802,timeout,eR.jpg,,,249254.5,249165.535,248665.525,248755.20000000298,248682.192,249182.202,
刺激提示,canvas.Screen,12_9_3,2023-01-09T23:28:52.982Z,,,d,true,d,90,801.7980000000098,response,eR.jpg,d,keypress(j),249990.5,249984,249165.535,249254.8999999985,249182.202,249932.217,
フィードバック(0.5秒),canvas.Screen,12_9_4,2023-01-09T23:28:53.496Z,,,d,,,90,500.0100000000093,timeout,eR.jpg,,,250504.6000000015,250415.56,249915.55,250005.5,249932.217,250432.227,
トライアル,flow.Sequence,12_9,2023-01-09T23:28:53.497Z,,,d,,,90,3233.3979999999865,completion,eR.jpg,,,250505,250415.56,247165.495,247254,247182.162,250432.227,
空白時間1 (0.5秒),canvas.Screen,12_10_0,2023-01-09T23:28:53.996Z,,,b,,,90,500.0099999999802,timeout,e.jpg,,,251004.70000000298,250915.57,250415.56,250505.30000000447,250432.227,250932.237,
注視(1秒),canvas.Screen,12_10_1,2023-01-09T23:28:54.996Z,,,b,,,90,1000.0200000000186,timeout,e.jpg,,,252004.70000000298,251915.59,250915.57,251005,250932.237,251932.257,
空白時間2 (0.5秒),canvas.Screen,12_10_2,2023-01-09T23:28:55.496Z,,,b,,,90,500.0099999999802,timeout,e.jpg,,,252504.6000000015,252415.6,251915.59,252005.1000000015,251932.257,252432.267,
刺激提示,canvas.Screen,12_10_3,2023-01-09T23:28:56.055Z,,,b,true,b,90,625.3330000014976,response,e.jpg,b,keypress(f),253063.5,253057.6000000015,252415.6,252504.8999999985,252432.267,252998.945,
フィードバック(0.5秒),canvas.Screen,12_10_4,2023-01-09T23:28:56.562Z,,,b,,,90,500.0099999999802,timeout,e.jpg,,,253570.70000000298,253482.288,252982.278,253079.70000000298,252998.945,253498.955,
トライアル,flow.Sequence,12_10,2023-01-09T23:28:56.563Z,,,b,,,90,3050.060999999987,completion,e.jpg,,,253571.1000000015,253482.288,250415.56,250505.20000000298,250432.227,253498.955,
空白時間1 (0.5秒),canvas.Screen,12_11_0,2023-01-09T23:28:57.063Z,,,d,,,45,500.0100000000093,timeout,eR.jpg,,,254071.30000000447,253982.298,253482.288,253571.30000000447,253498.955,253998.965,
注視(1秒),canvas.Screen,12_11_1,2023-01-09T23:28:58.062Z,,,d,,,45,1000.0199999999895,timeout,eR.jpg,,,255070.3999999985,254982.318,253982.298,254071.80000000447,253998.965,254998.985,
空白時間2 (0.5秒),canvas.Screen,12_11_2,2023-01-09T23:28:58.563Z,,,d,,,45,500.0100000000093,timeout,eR.jpg,,,255571.5,255482.328,254982.318,255070.80000000447,254998.985,255498.995,
刺激提示,canvas.Screen,12_11_3,2023-01-09T23:28:59.281Z,,,d,true,d,45,783.7050000029849,response,eR.jpg,d,keypress(j),256290,256282.70000000298,255482.328,255571.8999999985,255498.995,256215.676,
フィードバック(0.5秒),canvas.Screen,12_11_4,2023-01-09T23:28:59.779Z,,,d,,,45,500.0099999999802,timeout,eR.jpg,,,256787.80000000447,256699.019,256199.009,256292,256215.676,256715.686,
トライアル,flow.Sequence,12_11,2023-01-09T23:28:59.780Z,,,d,,,45,3200.064000000013,completion,eR.jpg,,,256788.1000000015,256699.019,253482.288,253571.30000000447,253498.955,256715.686,
空白時間1 (0.5秒),canvas.Screen,12_12_0,2023-01-09T23:29:00.279Z,,,d,,,225,500.0100000000093,timeout,eR.jpg,,,257287.30000000447,257199.029,256699.019,256788.3999999985,256715.686,257215.696,
注視(1秒),canvas.Screen,12_12_1,2023-01-09T23:29:01.279Z,,,d,,,225,1000.0199999999895,timeout,eR.jpg,,,258288,258199.049,257199.029,257287.6000000015,257215.696,258215.716,
空白時間2 (0.5秒),canvas.Screen,12_12_2,2023-01-09T23:29:01.779Z,,,d,,,225,500.0100000000093,timeout,eR.jpg,,,258787.5,258699.059,258199.049,258288.3999999985,258215.716,258715.726,
刺激提示,canvas.Screen,12_12_3,2023-01-09T23:29:02.550Z,,,d,true,d,225,836.374000001495,response,eR.jpg,d,keypress(j),259558.70000000298,259552.1000000015,258699.059,258787.80000000447,258715.726,259499.075,
フィードバック(0.5秒),canvas.Screen,12_12_4,2023-01-09T23:29:03.062Z,,,d,,,225,500.0099999999802,timeout,eR.jpg,,,260071,259982.418,259482.408,259575.70000000298,259499.075,259999.085,
トライアル,flow.Sequence,12_12,2023-01-09T23:29:03.063Z,,,d,,,225,3266.732000000018,completion,eR.jpg,,,260071.3999999985,259982.418,256699.019,256788.30000000447,256715.686,259999.085,
空白時間1 (0.5秒),canvas.Screen,12_13_0,2023-01-09T23:29:03.563Z,,,b,,,135,500.0100000000093,timeout,e.jpg,,,260571.70000000298,260482.428,259982.418,260071.70000000298,259999.085,260499.095,
注視(1秒),canvas.Screen,12_13_1,2023-01-09T23:29:04.562Z,,,b,,,135,1000.0199999999895,timeout,e.jpg,,,261571.1000000015,261482.448,260482.428,260572,260499.095,261499.115,
空白時間2 (0.5秒),canvas.Screen,12_13_2,2023-01-09T23:29:05.063Z,,,b,,,135,500.0100000000093,timeout,e.jpg,,,262071.30000000447,261982.458,261482.448,261571.3999999985,261499.115,261999.125,
刺激提示,canvas.Screen,12_13_3,2023-01-09T23:29:05.653Z,,,b,true,b,135,656.7749999985099,response,e.jpg,b,keypress(f),262661.80000000447,262655.8999999985,261982.458,262071.80000000447,261999.125,262582.47,
フィードバック(0.5秒),canvas.Screen,12_13_4,2023-01-09T23:29:06.146Z,,,b,,,135,500.0100000000093,timeout,e.jpg,,,263154.30000000447,263065.813,262565.803,262664.1000000015,262582.47,263082.48,
トライアル,flow.Sequence,12_13,2023-01-09T23:29:06.146Z,,,b,,,135,3066.728000000032,completion,e.jpg,,,263154.700000003,263065.813,259982.418,260071.5,259999.085,263082.48,
空白時間1 (0.5秒),canvas.Screen,12_14_0,2023-01-09T23:29:06.646Z,,,d,,,0,500.0100000000093,timeout,eR.jpg,,,263654.3999999985,263565.823,263065.813,263154.8999999985,263082.48,263582.49,
注視(1秒),canvas.Screen,12_14_1,2023-01-09T23:29:07.646Z,,,d,,,0,1000.125,timeout,eR.jpg,,,264654.80000000447,264565.948,263565.823,263654.700000003,263582.49,264582.615,
空白時間2 (0.5秒),canvas.Screen,12_14_2,2023-01-09T23:29:08.146Z,,,d,,,0,500.0100000000093,timeout,eR.jpg,,,265155.30000000447,265065.958,264565.948,264655.200000003,264582.615,265082.625,
刺激提示,canvas.Screen,12_14_3,2023-01-09T23:29:08.624Z,,,d,true,d,0,543.2749999985099,response,eR.jpg,d,keypress(j),265632.3999999985,265625.8999999985,265065.958,265155.6000000015,265082.625,265565.968,
フィードバック(0.5秒),canvas.Screen,12_14_4,2023-01-09T23:29:09.129Z,,,d,,,0,500.0100000000093,timeout,eR.jpg,,,266138.1000000015,266049.311,265549.301,265645.8999999985,265565.968,266065.978,
トライアル,flow.Sequence,12_14,2023-01-09T23:29:09.130Z,,,d,,,0,2966.8310000000056,completion,eR.jpg,,,266138.5,266049.311,263065.813,263154.80000000447,263082.48,266065.978,
空白時間1 (0.5秒),canvas.Screen,12_15_0,2023-01-09T23:29:09.629Z,,,b,,,315,500.0100000000093,timeout,e.jpg,,,266637.700000003,266549.321,266049.311,266138.700000003,266065.978,266565.988,
注視(1秒),canvas.Screen,12_15_1,2023-01-09T23:29:10.630Z,,,b,,,315,1000.0199999999604,timeout,e.jpg,,,267638.6000000015,267549.341,266549.321,266637.8999999985,266565.988,267566.008,
空白時間2 (0.5秒),canvas.Screen,12_15_2,2023-01-09T23:29:11.129Z,,,b,,,315,500.0100000000093,timeout,e.jpg,,,268138.200000003,268049.351,267549.341,267639,267566.008,268066.018,
刺激提示,canvas.Screen,12_15_3,2023-01-09T23:29:11.735Z,,,b,true,b,315,670.381999998528,response,e.jpg,b,keypress(f),268743.8999999985,268736.3999999985,268049.351,268138.5,268066.018,268666.03,
フィードバック(0.5秒),canvas.Screen,12_15_4,2023-01-09T23:29:12.229Z,,,b,,,315,500.0099999999511,timeout,e.jpg,,,269238,269149.373,268649.363,268745.5,268666.03,269166.04,
トライアル,flow.Sequence,12_15,2023-01-09T23:29:12.229Z,,,b,,,315,3083.3950000000186,completion,e.jpg,,,269238.3999999985,269149.373,266049.311,266138.6000000015,266065.978,269166.04,
タスクのセット,flow.Loop,12,2023-01-09T23:29:12.230Z,,,,,,,50367.78000000003,completion,,,,269238.6000000015,269149.373,218764.926,218853.8999999985,218781.593,269166.04,
空白時間1 (0.5秒),canvas.Screen,13_0_0,2023-01-09T23:29:12.729Z,,,b,,,225,500.0100000000093,timeout,e.jpg,,,269737.8999999985,269649.383,269149.373,269238.8999999985,269166.04,269666.05,
注視(1秒),canvas.Screen,13_0_1,2023-01-09T23:29:13.729Z,,,b,,,225,1000.0200000000186,timeout,e.jpg,,,270738.30000000447,270649.403,269649.383,269738.30000000447,269666.05,270666.07,
空白時間2 (0.5秒),canvas.Screen,13_0_2,2023-01-09T23:29:14.230Z,,,b,,,225,500.0100000000093,timeout,e.jpg,,,271238.6000000015,271149.413,270649.403,270738.6000000015,270666.07,271166.08,
刺激提示,canvas.Screen,13_0_3,2023-01-09T23:29:14.951Z,,,b,true,b,225,787.4199999999837,response,e.jpg,b,keypress(f),271959.700000003,271953.5,271149.413,271239,271166.08,271899.428,
フィードバック(0.5秒),canvas.Screen,13_0_4,2023-01-09T23:29:15.462Z,,,b,,,225,500.0100000000093,timeout,e.jpg,,,272471.200000003,272382.771,271882.761,271975.30000000447,271899.428,272399.438,
トライアル,flow.Sequence,13_0,2023-01-09T23:29:15.463Z,,,b,,,225,3216.731000000029,completion,e.jpg,,,272471.700000003,272382.771,269149.373,269238.80000000447,269166.04,272399.438,
空白時間1 (0.5秒),canvas.Screen,13_1_0,2023-01-09T23:29:15.963Z,,,d,,,45,500.0099999999511,timeout,eR.jpg,,,272972,272882.781,272382.771,272471.8999999985,272399.438,272899.448,
注視(1秒),canvas.Screen,13_1_1,2023-01-09T23:29:16.963Z,,,d,,,45,1000.0200000000186,timeout,eR.jpg,,,273971.700000003,273882.801,272882.781,272972.3999999985,272899.448,273899.468,
空白時間2 (0.5秒),canvas.Screen,13_1_2,2023-01-09T23:29:17.462Z,,,d,,,45,500.0109999999986,timeout,eR.jpg,,,274471.5,274382.812,273882.801,273972,273899.468,274399.479,
刺激提示,canvas.Screen,13_1_3,2023-01-09T23:29:17.988Z,,,d,true,d,45,592.4209999985178,response,eR.jpg,d,keypress(j),274997.5,274991.8999999985,274382.812,274471.8999999985,274399.479,274916.156,
フィードバック(0.5秒),canvas.Screen,13_1_4,2023-01-09T23:29:18.479Z,,,d,,,45,500.0100000000093,timeout,eR.jpg,,,275488.1000000015,275399.499,274899.489,274999.700000003,274916.156,275416.166,
トライアル,flow.Sequence,13_1,2023-01-09T23:29:18.480Z,,,d,,,45,3000.060999999987,completion,eR.jpg,,,275488.5,275399.499,272382.771,272471.8999999985,272399.438,275416.166,
空白時間1 (0.5秒),canvas.Screen,13_2_0,2023-01-09T23:29:18.979Z,,,b,,,270,500.0099999999511,timeout,e.jpg,,,275987.80000000447,275899.509,275399.499,275488.80000000447,275416.166,275916.176,
注視(1秒),canvas.Screen,13_2_1,2023-01-09T23:29:19.979Z,,,b,,,270,1000.0200000000186,timeout,e.jpg,,,276988.1000000015,276899.529,275899.509,275988.30000000447,275916.176,276916.196,
空白時間2 (0.5秒),canvas.Screen,13_2_2,2023-01-09T23:29:20.480Z,,,b,,,270,500.0100000000093,timeout,e.jpg,,,277488.6000000015,277399.539,276899.529,276988.5,276916.196,277416.206,
刺激提示,canvas.Screen,13_2_3,2023-01-09T23:29:21.006Z,,,b,true,b,270,592.7939999999944,response,e.jpg,b,keypress(f),278015.6000000015,278009,277399.539,277488.8999999985,277416.206,277949.55,
フィードバック(0.5秒),canvas.Screen,13_2_4,2023-01-09T23:29:21.512Z,,,b,,,270,500.0100000000093,timeout,e.jpg,,,278521.1000000015,278432.893,277932.883,278032.6000000015,277949.55,278449.56,
トライアル,flow.Sequence,13_2,2023-01-09T23:29:21.512Z,,,b,,,270,3016.7269999999553,completion,e.jpg,,,278521.6000000015,278432.893,275399.499,275488.700000003,275416.166,278449.56,
空白時間1 (0.5秒),canvas.Screen,13_3_0,2023-01-09T23:29:22.013Z,,,b,,,135,500.0100000000093,timeout,e.jpg,,,279021.700000003,278932.903,278432.893,278521.80000000447,278449.56,278949.57,
注視(1秒),canvas.Screen,13_3_1,2023-01-09T23:29:23.012Z,,,b,,,135,1000.0200000000186,timeout,e.jpg,,,280021.30000000447,279932.923,278932.903,279022,278949.57,279949.59,
空白時間2 (0.5秒),canvas.Screen,13_3_2,2023-01-09T23:29:23.513Z,,,b,,,135,500.0099999999511,timeout,e.jpg,,,280522.1000000015,280432.933,279932.923,280021.700000003,279949.59,280449.6,
刺激提示,canvas.Screen,13_3_3,2023-01-09T23:29:24.163Z,,,b,true,b,135,715.4000000000233,response,e.jpg,b,keypress(f),281171.700000003,281165,280432.933,280522.3999999985,280449.6,281116.28,
フィードバック(0.5秒),canvas.Screen,13_3_4,2023-01-09T23:29:24.679Z,,,b,,,135,500.0099999999511,timeout,e.jpg,,,281688,281599.623,281099.613,281187.30000000447,281116.28,281616.29,
トライアル,flow.Sequence,13_3,2023-01-09T23:29:24.679Z,,,b,,,135,3150.0630000000237,completion,e.jpg,,,281688.5,281599.623,278432.893,278521.700000003,278449.56,281616.29,
空白時間1 (0.5秒),canvas.Screen,13_4_0,2023-01-09T23:29:25.179Z,,,d,,,0,500.0100000000093,timeout,eR.jpg,,,282188.1000000015,282099.633,281599.623,281688.700000003,281616.29,282116.3,
注視(1秒),canvas.Screen,13_4_1,2023-01-09T23:29:26.178Z,,,d,,,0,1000.0200000000186,timeout,eR.jpg,,,283187.200000003,283099.653,282099.633,282188.5,282116.3,283116.32,
空白時間2 (0.5秒),canvas.Screen,13_4_2,2023-01-09T23:29:26.679Z,,,d,,,0,500.0100000000093,timeout,eR.jpg,,,283688.1000000015,283599.663,283099.653,283187.6000000015,283116.32,283616.33,
刺激提示,canvas.Screen,13_4_3,2023-01-09T23:29:27.123Z,,,d,true,d,0,509.5699999984936,response,eR.jpg,d,keypress(j),284131.8999999985,284125.8999999985,283599.663,283688.6000000015,283616.33,284066.339,
フィードバック(0.5秒),canvas.Screen,13_4_4,2023-01-09T23:29:27.629Z,,,d,,,0,500.00800000003073,timeout,eR.jpg,,,284638,284549.68,284049.672,284134.700000003,284066.339,284566.347,
トライアル,flow.Sequence,13_4,2023-01-09T23:29:27.629Z,,,d,,,0,2933.390000000014,completion,eR.jpg,,,284638.5,284549.68,281599.623,281688.6000000015,281616.29,284566.347,
空白時間1 (0.5秒),canvas.Screen,13_5_0,2023-01-09T23:29:28.129Z,,,b,,,315,500.0100000000093,timeout,e.jpg,,,285138.3999999985,285049.69,284549.68,284638.700000003,284566.347,285066.357,
注視(1秒),canvas.Screen,13_5_1,2023-01-09T23:29:29.129Z,,,b,,,315,1000.0199999999604,timeout,e.jpg,,,286138.30000000447,286049.71,285049.69,285138.80000000447,285066.357,286066.377,
空白時間2 (0.5秒),canvas.Screen,13_5_2,2023-01-09T23:29:29.629Z,,,b,,,315,500.0100000000093,timeout,e.jpg,,,286638.30000000447,286549.72,286049.71,286138.700000003,286066.377,286566.387,
刺激提示,canvas.Screen,13_5_3,2023-01-09T23:29:30.071Z,,,b,true,b,315,507.512999998522,response,e.jpg,b,keypress(f),287080.1000000015,287073.8999999985,286549.72,286638.700000003,286566.387,286999.729,
フィードバック(0.5秒),canvas.Screen,13_5_4,2023-01-09T23:29:30.563Z,,,b,,,315,500.0100000000093,timeout,e.jpg,,,287572.1000000015,287483.072,286983.062,287082.3999999985,286999.729,287499.739,
トライアル,flow.Sequence,13_5,2023-01-09T23:29:30.563Z,,,b,,,315,2916.7249999999767,completion,e.jpg,,,287572.5,287483.072,284549.68,284638.6000000015,284566.347,287499.739,
空白時間1 (0.5秒),canvas.Screen,13_6_0,2023-01-09T23:29:31.063Z,,,d,,,225,500.0100000000093,timeout,eR.jpg,,,288072.1000000015,287983.082,287483.072,287572.700000003,287499.739,287999.749,
注視(1秒),canvas.Screen,13_6_1,2023-01-09T23:29:32.062Z,,,d,,,225,1000.0199999999604,timeout,eR.jpg,,,289071.700000003,288983.102,287983.082,288072.5,287999.749,288999.769,
空白時間2 (0.5秒),canvas.Screen,13_6_2,2023-01-09T23:29:32.563Z,,,d,,,225,500.0100000000093,timeout,eR.jpg,,,289572.30000000447,289483.112,288983.102,289072,288999.769,289499.779,
刺激提示,canvas.Screen,13_6_3,2023-01-09T23:29:33.282Z,,,d,false,d,225,784.8210000015097,response,eR.jpg,b,keypress(f),290291.30000000447,290284.6000000015,289483.112,289572.700000003,289499.779,290233.127,
フィードバック(0.5秒),canvas.Screen,13_6_4,2023-01-09T23:29:33.796Z,,,d,,,225,500.0100000000093,timeout,eR.jpg,,,290805.30000000447,290716.47,290216.46,290307,290233.127,290733.137,
トライアル,flow.Sequence,13_6,2023-01-09T23:29:33.796Z,,,d,,,225,3216.7309999999707,completion,eR.jpg,,,290805.80000000447,290716.47,287483.072,287572.6000000015,287499.739,290733.137,
空白時間1 (0.5秒),canvas.Screen,13_7_0,2023-01-09T23:29:34.296Z,,,d,,,270,500.0100000000093,timeout,eR.jpg,,,291305.6000000015,291216.48,290716.47,290806.1000000015,290733.137,291233.147,
注視(1秒),canvas.Screen,13_7_1,2023-01-09T23:29:35.296Z,,,d,,,270,1000.0200000000186,timeout,eR.jpg,,,292305.3999999985,292216.5,291216.48,291306,291233.147,292233.167,
空白時間2 (0.5秒),canvas.Screen,13_7_2,2023-01-09T23:29:35.796Z,,,d,,,270,500.0100000000093,timeout,eR.jpg,,,292805.6000000015,292716.51,292216.5,292305.80000000447,292233.167,292733.177,
刺激提示,canvas.Screen,13_7_3,2023-01-09T23:29:36.377Z,,,d,true,d,270,646.0230000029551,response,eR.jpg,d,keypress(j),293386.80000000447,293379.200000003,292716.51,292806,292733.177,293316.522,
フィードバック(0.5秒),canvas.Screen,13_7_4,2023-01-09T23:29:36.880Z,,,d,,,270,500.0100000000093,timeout,eR.jpg,,,293889,293799.865,293299.855,293402.5,293316.522,293816.532,
トライアル,flow.Sequence,13_7,2023-01-09T23:29:36.880Z,,,d,,,270,3066.728000000003,completion,eR.jpg,,,293889.5,293799.865,290716.47,290806,290733.137,293816.532,
空白時間1 (0.5秒),canvas.Screen,13_8_0,2023-01-09T23:29:37.379Z,,,b,,,180,500.0100000000093,timeout,e.jpg,,,294388.3999999985,294299.875,293799.865,293889.700000003,293816.532,294316.542,
注視(1秒),canvas.Screen,13_8_1,2023-01-09T23:29:38.379Z,,,b,,,180,1000.0210000000079,timeout,e.jpg,,,295388.200000003,295299.896,294299.875,294388.8999999985,294316.542,295316.563,
空白時間2 (0.5秒),canvas.Screen,13_8_2,2023-01-09T23:29:38.879Z,,,b,,,180,500.0099999999511,timeout,e.jpg,,,295888.1000000015,295799.906,295299.896,295388.6000000015,295316.563,295816.573,
刺激提示,canvas.Screen,13_8_3,2023-01-09T23:29:39.579Z,,,b,true,b,180,764.7270000044955,response,e.jpg,b,keypress(f),296588.6000000015,296581.30000000447,295799.906,295888.3999999985,295816.573,296516.587,
フィードバック(0.5秒),canvas.Screen,13_8_4,2023-01-09T23:29:40.079Z,,,b,,,180,500.0100000000093,timeout,e.jpg,,,297088.6000000015,296999.93,296499.92,296590.1000000015,296516.587,297016.597,
トライアル,flow.Sequence,13_8,2023-01-09T23:29:40.079Z,,,b,,,180,3183.3979999999865,completion,e.jpg,,,297088.8999999985,296999.93,293799.865,293889.6000000015,293816.532,297016.597,
空白時間1 (0.5秒),canvas.Screen,13_9_0,2023-01-09T23:29:40.578Z,,,b,,,45,500.0100000000093,timeout,e.jpg,,,297587.8999999985,297499.94,296999.93,297089.1000000015,297016.597,297516.607,
注視(1秒),canvas.Screen,13_9_1,2023-01-09T23:29:41.579Z,,,b,,,45,1000.0199999999604,timeout,e.jpg,,,298589.1000000015,298499.96,297499.94,297588.200000003,297516.607,298516.627,
空白時間2 (0.5秒),canvas.Screen,13_9_2,2023-01-09T23:29:42.079Z,,,b,,,45,500.0100000000093,timeout,e.jpg,,,299088.30000000447,298999.97,298499.96,298589.3999999985,298516.627,299016.637,
刺激提示,canvas.Screen,13_9_3,2023-01-09T23:29:42.794Z,,,b,true,b,45,779.3630000000121,response,e.jpg,b,keypress(f),299803.200000003,299796,298999.97,299088.700000003,299016.637,299733.318,
フィードバック(0.5秒),canvas.Screen,13_9_4,2023-01-09T23:29:43.296Z,,,b,,,45,500.0099999999511,timeout,e.jpg,,,300305.5,300216.661,299716.651,299818.80000000447,299733.318,300233.328,
トライアル,flow.Sequence,13_9,2023-01-09T23:29:43.296Z,,,b,,,45,3200.064000000013,completion,e.jpg,,,300305.8999999985,300216.661,296999.93,297089.1000000015,297016.597,300233.328,
空白時間1 (0.5秒),canvas.Screen,13_10_0,2023-01-09T23:29:43.796Z,,,b,,,90,500.0100000000093,timeout,e.jpg,,,300805.8999999985,300716.671,300216.661,300306.200000003,300233.328,300733.338,
注視(1秒),canvas.Screen,13_10_1,2023-01-09T23:29:44.795Z,,,b,,,90,1000.0200000000186,timeout,e.jpg,,,301804.8999999985,301716.691,300716.671,300806.30000000447,300733.338,301733.358,
空白時間2 (0.5秒),canvas.Screen,13_10_2,2023-01-09T23:29:45.296Z,,,b,,,90,500.0100000000093,timeout,e.jpg,,,302305.6000000015,302216.701,301716.691,301805.30000000447,301733.358,302233.368,
刺激提示,canvas.Screen,13_10_3,2023-01-09T23:29:45.811Z,,,b,true,b,90,580.4320000044536,response,e.jpg,b,keypress(f),302820.3999999985,302813.80000000447,302216.701,302306,302233.368,302750.045,
フィードバック(0.5秒),canvas.Screen,13_10_4,2023-01-09T23:29:46.312Z,,,b,,,90,500.0100000000093,timeout,e.jpg,,,303321.8999999985,303233.388,302733.378,302822.80000000447,302750.045,303250.055,
トライアル,flow.Sequence,13_10,2023-01-09T23:29:46.313Z,,,b,,,90,3000.0599999999977,completion,e.jpg,,,303322.30000000447,303233.388,300216.661,300306.1000000015,300233.328,303250.055,
空白時間1 (0.5秒),canvas.Screen,13_11_0,2023-01-09T23:29:46.812Z,,,d,,,90,500.0100000000093,timeout,eR.jpg,,,303821.80000000447,303733.398,303233.388,303322.5,303250.055,303750.065,
注視(1秒),canvas.Screen,13_11_1,2023-01-09T23:29:47.813Z,,,d,,,90,1000.0200000000186,timeout,eR.jpg,,,304822.6000000015,304733.418,303733.398,303822.200000003,303750.065,304750.085,
空白時間2 (0.5秒),canvas.Screen,13_11_2,2023-01-09T23:29:48.312Z,,,d,,,90,500.0099999999511,timeout,eR.jpg,,,305322.1000000015,305233.428,304733.418,304822.80000000447,304750.085,305250.095,
刺激提示,canvas.Screen,13_11_3,2023-01-09T23:29:48.911Z,,,d,true,d,90,663.505000001518,response,eR.jpg,d,keypress(j),305920.80000000447,305913.6000000015,305233.428,305322.3999999985,305250.095,305866.774,
フィードバック(0.5秒),canvas.Screen,13_11_4,2023-01-09T23:29:49.429Z,,,d,,,90,500.0100000000093,timeout,eR.jpg,,,306438.6000000015,306350.117,305850.107,305936.8999999985,305866.774,306366.784,
トライアル,flow.Sequence,13_11,2023-01-09T23:29:49.429Z,,,d,,,90,3100.0620000000345,completion,eR.jpg,,,306439,306350.117,303233.388,303322.3999999985,303250.055,306366.784,
空白時間1 (0.5秒),canvas.Screen,13_12_0,2023-01-09T23:29:49.929Z,,,d,,,180,500.0100000000093,timeout,eR.jpg,,,306939.200000003,306850.127,306350.117,306439.200000003,306366.784,306866.794,
注視(1秒),canvas.Screen,13_12_1,2023-01-09T23:29:50.929Z,,,d,,,180,1000.0200000000186,timeout,eR.jpg,,,307938.700000003,307850.147,306850.127,306939.700000003,306866.794,307866.814,
空白時間2 (0.5秒),canvas.Screen,13_12_2,2023-01-09T23:29:51.429Z,,,d,,,180,500.0100000000093,timeout,eR.jpg,,,308438.8999999985,308350.157,307850.147,307939,307866.814,308366.824,
刺激提示,canvas.Screen,13_12_3,2023-01-09T23:29:52.126Z,,,d,false,d,180,764.3760000029579,response,eR.jpg,b,keypress(f),309136.30000000447,309131.200000003,308350.157,308439.30000000447,308366.824,309066.838,
フィードバック(0.5秒),canvas.Screen,13_12_4,2023-01-09T23:29:52.629Z,,,d,,,180,500.0100000000093,timeout,eR.jpg,,,309638.80000000447,309550.181,309050.171,309151.700000003,309066.838,309566.848,
トライアル,flow.Sequence,13_12,2023-01-09T23:29:52.629Z,,,d,,,180,3183.396999999997,completion,eR.jpg,,,309639.30000000447,309550.181,306350.117,306439.200000003,306366.784,309566.848,
空白時間1 (0.5秒),canvas.Screen,13_13_0,2023-01-09T23:29:53.128Z,,,d,,,315,500.0100000000093,timeout,eR.jpg,,,310138.200000003,310050.191,309550.181,309639.3999999985,309566.848,310066.858,
注視(1秒),canvas.Screen,13_13_1,2023-01-09T23:29:54.130Z,,,d,,,315,1000.0200000000186,timeout,eR.jpg,,,311139.5,311050.211,310050.191,310138.30000000447,310066.858,311066.878,
空白時間2 (0.5秒),canvas.Screen,13_13_2,2023-01-09T23:29:54.629Z,,,d,,,315,500.0099999999511,timeout,eR.jpg,,,311638.80000000447,311550.221,311050.211,311139.8999999985,311066.878,311566.888,
刺激提示,canvas.Screen,13_13_3,2023-01-09T23:29:55.297Z,,,d,true,d,315,733.0119999985327,response,eR.jpg,d,keypress(j),312306.80000000447,312299.8999999985,311550.221,311639,311566.888,312233.568,
フィードバック(0.5秒),canvas.Screen,13_13_4,2023-01-09T23:29:55.796Z,,,d,,,315,500.0099999999511,timeout,eR.jpg,,,312805.6000000015,312716.911,312216.901,312308.700000003,312233.568,312733.578,
トライアル,flow.Sequence,13_13,2023-01-09T23:29:55.796Z,,,d,,,315,3150.0630000000237,completion,eR.jpg,,,312806.200000003,312716.911,309550.181,309639.3999999985,309566.848,312733.578,
空白時間1 (0.5秒),canvas.Screen,13_14_0,2023-01-09T23:29:56.296Z,,,d,,,135,500.0100000000093,timeout,eR.jpg,,,313306.30000000447,313216.921,312716.911,312806.3999999985,312733.578,313233.588,
注視(1秒),canvas.Screen,13_14_1,2023-01-09T23:29:57.295Z,,,d,,,135,1000.0200000000186,timeout,eR.jpg,,,314305.3999999985,314216.941,313216.921,313306.6000000015,313233.588,314233.608,
空白時間2 (0.5秒),canvas.Screen,13_14_2,2023-01-09T23:29:57.796Z,,,d,,,135,500.0100000000093,timeout,eR.jpg,,,314805.6000000015,314716.951,314216.941,314305.80000000447,314233.608,314733.618,
刺激提示,canvas.Screen,13_14_3,2023-01-09T23:29:58.517Z,,,d,true,d,135,786.3819999999832,response,eR.jpg,d,keypress(j),315527.5,315520,314716.951,314805.8999999985,314733.618,315466.966,
フィードバック(0.5秒),canvas.Screen,13_14_4,2023-01-09T23:29:59.029Z,,,d,,,135,500.03999999997905,timeout,eR.jpg,,,316039.1000000015,315950.339,315450.299,315542.80000000447,315466.966,315967.006,
トライアル,flow.Sequence,13_14,2023-01-09T23:29:59.030Z,,,d,,,135,3216.7609999999986,completion,eR.jpg,,,316039.6000000015,315950.339,312716.911,312806.200000003,312733.578,315967.006,
空白時間1 (0.5秒),canvas.Screen,13_15_0,2023-01-09T23:29:59.529Z,,,b,,,0,500.0100000000093,timeout,e.jpg,,,316538.700000003,316450.349,315950.339,316039.80000000447,315967.006,316467.016,
注視(1秒),canvas.Screen,13_15_1,2023-01-09T23:30:00.529Z,,,b,,,0,1000.0200000000186,timeout,e.jpg,,,317539.5,317450.369,316450.349,316539.1000000015,316467.016,317467.036,
空白時間2 (0.5秒),canvas.Screen,13_15_2,2023-01-09T23:30:01.029Z,,,b,,,0,500.0099999999511,timeout,e.jpg,,,318039.1000000015,317950.379,317450.369,317539.80000000447,317467.036,317967.046,
刺激提示,canvas.Screen,13_15_3,2023-01-09T23:30:01.538Z,,,b,true,b,0,574.1540000030072,response,e.jpg,b,keypress(f),318548.6000000015,318541.200000003,317950.379,318039.5,317967.046,318467.056,
フィードバック(0.5秒),canvas.Screen,13_15_4,2023-01-09T23:30:02.029Z,,,b,,,0,500.0100000000093,timeout,e.jpg,,,319039.200000003,318950.399,318450.389,318550.5,318467.056,318967.066,
トライアル,flow.Sequence,13_15,2023-01-09T23:30:02.030Z,,,b,,,0,2983.392999999982,completion,e.jpg,,,319039.700000003,318950.399,315950.339,316039.700000003,315967.006,318967.066,
タスクのセット,flow.Loop,13,2023-01-09T23:30:02.030Z,,,,,,,49784.359,completion,,,,319039.8999999985,318950.399,269149.373,269238.700000003,269166.04,318967.066,
休憩,canvas.Screen,14,2023-01-09T23:31:02.029Z,,,,,,,60001.20000000001,timeout,,,,379040.6000000015,378951.599,318950.399,319040.1000000015,318967.066,378968.266,
休憩終了,html.Page,15,2023-01-09T23:31:07.459Z,,,,,,,5502.534000004467,form submission,,,,384471,384470.80000000447,378951.599,379041,378968.266,384385.225,
イントロ2,html.Page,16,2023-01-09T23:31:11.827Z,,,,,,,4452.9750000030035,form submission,,,,388838.700000003,388838.200000003,384368.558,384471.1000000015,384385.225,388751.979,
イントロ3,html.Page,17,2023-01-09T23:31:16.568Z,,,,,,,4827.721000002988,form submission,,,,393580,393579.700000003,388735.312,388838.8999999985,388751.979,393502.074,
イントロ4,html.Page,18,2023-01-09T23:31:17.564Z,,,,,,,1073.226000004448,form submission,,,,394575.700000003,394575.30000000447,393485.407,393580.200000003,393502.074,394502.105,
イントロ5,html.Page,19,2023-01-09T23:31:20.532Z,,,,,,,3042.095000002999,form submission,,,,397544.5,397544.200000003,394485.438,394575.80000000447,394502.105,397468.831,
できるだけ早く正確に,canvas.Screen,20,2023-01-09T23:31:21.529Z,,,,,,,1000.0200000000186,timeout,,,,398540.80000000447,398452.184,397452.164,397544.6000000015,397468.831,398468.851,
空白時間1 (0.5秒),canvas.Screen,21_0_0,2023-01-09T23:31:22.028Z,,,d,,,225,500.0099999999511,timeout,2R.jpg,,,399040,398952.194,398452.184,398541.1000000015,398468.851,398968.861,
注視(1秒),canvas.Screen,21_0_1,2023-01-09T23:31:23.029Z,,,d,,,225,1000.0200000000186,timeout,2R.jpg,,,400040.8999999985,399952.214,398952.194,399040.3999999985,398968.861,399968.881,
空白時間2 (0.5秒),canvas.Screen,21_0_2,2023-01-09T23:31:23.529Z,,,d,,,225,500.0100000000093,timeout,2R.jpg,,,400540.80000000447,400452.224,399952.214,400041.200000003,399968.881,400468.891,
刺激提示(練習),canvas.Screen,21_0_3,2023-01-09T23:31:24.561Z,,,d,false,d,225,1097.5089999985066,response,2R.jpg,b,keypress(f),401573.700000003,401566.3999999985,400452.224,400541.200000003,400468.891,401502.245,
フィードバック(0.5秒),canvas.Screen,21_0_4,2023-01-09T23:31:25.062Z,,,d,,,225,500.0100000000093,timeout,2R.jpg,,,402074.6000000015,401985.588,401485.578,401590.1000000015,401502.245,402002.255,
トライアル,flow.Sequence,21_0,2023-01-09T23:31:25.063Z,,,d,,,225,3516.7369999999646,completion,2R.jpg,,,402075,401985.588,398452.184,398541.1000000015,398468.851,402002.255,
空白時間1 (0.5秒),canvas.Screen,21_1_0,2023-01-09T23:31:25.562Z,,,d,,,90,500.0100000000093,timeout,2R.jpg,,,402574.1000000015,402485.598,401985.588,402075.200000003,402002.255,402502.265,
注視(1秒),canvas.Screen,21_1_1,2023-01-09T23:31:26.562Z,,,d,,,90,1000.0199999999604,timeout,2R.jpg,,,403574.6000000015,403485.618,402485.598,402574.5,402502.265,403502.285,
空白時間2 (0.5秒),canvas.Screen,21_1_2,2023-01-09T23:31:27.062Z,,,d,,,90,500.0100000000093,timeout,2R.jpg,,,404074.1000000015,403985.628,403485.618,403575,403502.285,404002.295,
刺激提示(練習),canvas.Screen,21_1_3,2023-01-09T23:31:28.017Z,,,d,true,d,90,1019.6049999985262,response,2R.jpg,d,keypress(j),405029.700000003,405021.8999999985,403985.628,404074.3999999985,404002.295,404952.378,
フィードバック(0.5秒),canvas.Screen,21_1_4,2023-01-09T23:31:28.513Z,,,d,,,90,500.0099999999511,timeout,2R.jpg,,,405525,405435.721,404935.711,405031.80000000447,404952.378,405452.388,
トライアル,flow.Sequence,21_1,2023-01-09T23:31:28.513Z,,,d,,,90,3433.466000000015,completion,2R.jpg,,,405525.6000000015,405435.721,401985.588,402075.1000000015,402002.255,405452.388,
空白時間1 (0.5秒),canvas.Screen,21_2_0,2023-01-09T23:31:29.012Z,,,b,,,180,500.0100000000093,timeout,2.jpg,,,406024.1000000015,405935.731,405435.721,405525.80000000447,405452.388,405952.398,
注視(1秒),canvas.Screen,21_2_1,2023-01-09T23:31:30.013Z,,,b,,,180,1000.0200000000186,timeout,2.jpg,,,407025,406935.751,405935.731,406024.5,405952.398,406952.418,
空白時間2 (0.5秒),canvas.Screen,21_2_2,2023-01-09T23:31:30.512Z,,,b,,,180,500.0100000000093,timeout,2.jpg,,,407524.700000003,407435.761,406935.751,407025.30000000447,406952.418,407452.428,
刺激提示(練習),canvas.Screen,21_2_3,2023-01-09T23:31:31.615Z,,,b,false,b,180,1167.9719999984954,response,2.jpg,d,keypress(j),408627.3999999985,408620.3999999985,407435.761,407525.1000000015,407452.428,408569.117,
フィードバック(0.5秒),canvas.Screen,21_2_4,2023-01-09T23:31:32.129Z,,,b,,,180,500.0099999999511,timeout,2.jpg,,,409141,409052.46,408552.45,408642.1000000015,408569.117,409069.127,
トライアル,flow.Sequence,21_2,2023-01-09T23:31:32.129Z,,,b,,,180,3600.0720000000438,completion,2.jpg,,,409141.5,409052.46,405435.721,405525.700000003,405452.388,409069.127,
空白時間1 (0.5秒),canvas.Screen,21_3_0,2023-01-09T23:31:32.629Z,,,b,,,45,500.0100000000093,timeout,2.jpg,,,409641.200000003,409552.47,409052.46,409141.700000003,409069.127,409569.137,
注視(1秒),canvas.Screen,21_3_1,2023-01-09T23:31:33.629Z,,,b,,,45,1000.0200000000186,timeout,2.jpg,,,410641.1000000015,410552.49,409552.47,409641.5,409569.137,410569.157,
空白時間2 (0.5秒),canvas.Screen,21_3_2,2023-01-09T23:31:34.129Z,,,b,,,45,500.0100000000093,timeout,2.jpg,,,411141.30000000447,411052.5,410552.49,410641.3999999985,410569.157,411069.167,
刺激提示(練習),canvas.Screen,21_3_3,2023-01-09T23:31:34.663Z,,,b,true,b,45,600.232999998494,response,2.jpg,b,keypress(f),411675.6000000015,411669.3999999985,411052.5,411141.700000003,411069.167,411619.178,
フィードバック(0.5秒),canvas.Screen,21_3_4,2023-01-09T23:31:35.179Z,,,b,,,45,500.0100000000093,timeout,2.jpg,,,412191.700000003,412102.521,411602.511,411688.8999999985,411619.178,412119.188,
