sender,sender_type,sender_id,timestamp,meta,,answer,correct,correctResponse,deg,duration,ended_on,image,response,response_action,time_commit,time_end,time_render,time_run,time_show,time_switch,url
イントロ1,html.Page,0,2023-01-15T06:12:17.238Z,"{""labjs_version"":""20.2.4"",""labjs_build"":{""flavor"":""development"",""commit"":""f5b4a49f956347addd546a832a3327688c2c0fef""},""location"":""https://labjs.felixhenninger.com/api/labjs_preview/index.html"",""userAgent"":""Mozilla/5.0 (Macintosh; Intel Mac OS X 10_15_7) AppleWebKit/537.36 (KHTML, like Gecko) Chrome/102.0.0.0 Safari/537.36"",""platform"":""MacIntel"",""language"":""ja"",""locale"":""ja"",""timeZone"":""Asia/Tokyo"",""timezoneOffset"":-540,""screen_width"":1440,""screen_height"":900,""scroll_width"":1440,""scroll_height"":773,""window_innerWidth"":1440,""window_innerHeight"":821,""devicePixelRatio"":2}",,,,,,10159.81600001192,form submission,,,,11015.40000000596,11014.800000011921,688.434,983.8000000119209,854.984,10881.795,{}
イントロ2,html.Page,1,2023-01-15T06:12:33.316Z,,,,,,,16210.705,form submission,,,,27092.80000001192,27092.5,10865.14,11016,10881.795,26954.274,
イントロ3,html.Page,2,2023-01-15T06:12:43.349Z,,,,,,,10171.426000002979,form submission,,,,37126,37125.70000000298,26937.619,27093.10000000894,26954.274,36997.239,
イントロ4,html.Page,3,2023-01-15T06:13:03.121Z,,,,,,,19900.16100000596,form submission,,,,56897.60000000894,56897.40000000596,36980.584,37126.10000000894,36997.239,56767.317,
イントロ5,html.Page,4,2023-01-15T06:13:06.730Z,,,,,,,3738.6829999999973,form submission,,,,60506.30000001192,60506,56750.662,56897.80000001192,56767.317,60398.848,
できるだけ早く正確に,canvas.Screen,5,2023-01-15T06:13:07.616Z,,,,,,,849.4049999999988,timeout,,,,61392.20000000298,61391.30000001192,60365.538,60506.40000000596,60398.848,61248.253,
空白時間1 (0.5秒),canvas.Screen,6_0_0,2023-01-15T06:13:07.972Z,,,d,,,315,349.75500000000466,timeout,eR.jpg,,,61749.20000000298,61748.5,61391.30000001192,61392.80000001192,61248.253,61598.008,
注視(1秒),canvas.Screen,6_0_1,2023-01-15T06:13:08.815Z,,,d,,,315,849.4049999999988,timeout,eR.jpg,,,62591.80000001192,62591.10000000894,61748.5,61749.60000000894,61598.008,62447.413,
空白時間2 (0.5秒),canvas.Screen,6_0_2,2023-01-15T06:13:09.173Z,,,d,,,315,349.7549999999974,timeout,eR.jpg,,,62949.5,62948.5,62591.10000000894,62592.20000000298,62447.413,62797.168,
刺激提示(練習),canvas.Screen,6_0_3,2023-01-15T06:13:10.276Z,,,d,true,d,315,1245.9320000089429,response,eR.jpg,d,keypress(j),64052.5,64043.10000000894,62948.5,62950.20000000298,62797.168,63913.053,
フィードバック(0.5秒),canvas.Screen,6_0_4,2023-01-15T06:13:10.639Z,,,d,,,315,349.7549999999974,timeout,eR.jpg,,,64415.80000001192,64415.20000000298,63896.398,64054.70000000298,63913.053,64262.808,
トライアル,flow.Sequence,6_0,2023-01-15T06:13:10.640Z,,,d,,,315,3166.9470000029833,completion,eR.jpg,,,64417.10000000894,64415.20000000298,61391.30000001192,61392.70000000298,61248.253,64262.808,
空白時間1 (0.5秒),canvas.Screen,6_1_0,2023-01-15T06:13:10.993Z,,,d,,,135,366.4100000000035,timeout,eR.jpg,,,64769.90000000596,64769.10000000894,64415.20000000298,64417.5,64262.808,64629.218,
注視(1秒),canvas.Screen,6_1_1,2023-01-15T06:13:11.844Z,,,d,,,135,849.4049999999988,timeout,eR.jpg,,,65620.5,65619.70000000298,64769.10000000894,64770.30000001192,64629.218,65478.623,
空白時間2 (0.5秒),canvas.Screen,6_1_2,2023-01-15T06:13:12.202Z,,,d,,,135,349.7549999999974,timeout,eR.jpg,,,65978.60000000894,65977.90000000596,65619.70000000298,65620.80000001192,65478.623,65828.378,
刺激提示(練習),canvas.Screen,6_1_3,2023-01-15T06:13:13.035Z,,,d,true,d,135,976.0220000059635,response,eR.jpg,d,keypress(j),66811.60000000894,66804.40000000596,65977.90000000596,65979,65828.378,66694.438,
フィードバック(0.5秒),canvas.Screen,6_1_4,2023-01-15T06:13:13.422Z,,,d,,,135,349.75500000000466,timeout,eR.jpg,,,67198.60000000894,67198.40000000596,66661.128,66813.90000000596,66694.438,67044.193,
トライアル,flow.Sequence,6_1,2023-01-15T06:13:13.422Z,,,d,,,135,2935.592000005963,completion,eR.jpg,,,67198.90000000596,67198.40000000596,64415.20000000298,64417.40000000596,64262.808,67044.193,
空白時間1 (0.5秒),canvas.Screen,6_2_0,2023-01-15T06:13:13.893Z,,,b,,,270,500.0369999999966,timeout,e.jpg,,,67669.80000001192,67527.575,67198.40000000596,67199,67044.193,67544.23,
注視(1秒),canvas.Screen,6_2_1,2023-01-15T06:13:14.761Z,,,b,,,270,849.4049999999988,timeout,e.jpg,,,68537.30000001192,68536.80000001192,67527.575,67670,67544.23,68393.635,
空白時間2 (0.5秒),canvas.Screen,6_2_2,2023-01-15T06:13:15.119Z,,,b,,,270,349.75500000000466,timeout,e.jpg,,,68895.60000000894,68895.20000000298,68536.80000001192,68537.70000000298,68393.635,68743.39,
刺激提示(練習),canvas.Screen,6_2_3,2023-01-15T06:13:15.764Z,,,b,true,b,270,791.010000005961,response,e.jpg,b,keypress(f),69541,69534.40000000596,68895.20000000298,68896,68743.39,69409.59,
フィードバック(0.5秒),canvas.Screen,6_2_4,2023-01-15T06:13:16.132Z,,,b,,,270,349.75500000000466,timeout,e.jpg,,,69909,69908.5,69392.935,69543.10000000894,69409.59,69759.345,
トライアル,flow.Sequence,6_2,2023-01-15T06:13:16.133Z,,,b,,,270,2864.3070000000007,completion,e.jpg,,,69909.60000000894,69908.5,67198.40000000596,67199,67044.193,69759.345,
空白時間1 (0.5秒),canvas.Screen,6_3_0,2023-01-15T06:13:16.484Z,,,b,,,180,349.75500000000466,timeout,e.jpg,,,70261,70260.5,69908.5,69909.90000000596,69759.345,70109.1,
注視(1秒),canvas.Screen,6_3_1,2023-01-15T06:13:17.324Z,,,b,,,180,849.4049999999988,timeout,e.jpg,,,71100.40000000596,71099.90000000596,70260.5,70261.5,70109.1,70958.505,
空白時間2 (0.5秒),canvas.Screen,6_3_2,2023-01-15T06:13:17.686Z,,,b,,,180,349.7549999999901,timeout,e.jpg,,,71462.5,71461.90000000596,71099.90000000596,71100.70000000298,70958.505,71308.26,
刺激提示(練習),canvas.Screen,6_3_3,2023-01-15T06:13:18.645Z,,,b,false,b,180,1106.840000008946,response,e.jpg,d,keypress(j),72421.5,72415.10000000894,71461.90000000596,71462.90000000596,71308.26,72290.905,
フィードバック(0.5秒),canvas.Screen,6_3_4,2023-01-15T06:13:19.012Z,,,b,,,180,349.75500000000466,timeout,e.jpg,,,72789.10000000894,72788.5,72274.25,72423.70000000298,72290.905,72640.66,
トライアル,flow.Sequence,6_3,2023-01-15T06:13:19.013Z,,,b,,,180,3029.154999999999,completion,e.jpg,,,72789.70000000298,72788.5,69908.5,69909.80000001192,69759.345,72640.66,
練習試行(e),flow.Loop,6,2023-01-15T06:13:19.013Z,,,,,,,11540.247000000003,completion,,,,72790,72788.5,61391.30000001192,61392.70000000298,61248.253,72640.66,
イントロ6,html.Page,7,2023-01-15T06:13:23.995Z,,,,,,,5130.8399999999965,form submission,,,,77771.70000000298,77771.5,72788.5,72790.10000000894,72640.66,77620.505,
できるだけ早く正確に,canvas.Screen,8,2023-01-15T06:13:24.836Z,,,,,,,866.4569999999949,timeout,,,,78612.20000000298,78611.80000001192,77603.85,77772,77620.505,78486.962,
空白時間1 (0.5秒),canvas.Screen,9_0_0,2023-01-15T06:13:25.210Z,,,d,,,180,349.75500000000466,timeout,eR.jpg,,,78986.30000001192,78985.80000001192,78611.80000001192,78613.60000000894,78486.962,78836.717,
注視(1秒),canvas.Screen,9_0_1,2023-01-15T06:13:26.052Z,,,d,,,180,849.4049999999988,timeout,eR.jpg,,,79828.90000000596,79828.40000000596,78985.80000001192,78986.70000000298,78836.717,79686.122,
空白時間2 (0.5秒),canvas.Screen,9_0_2,2023-01-15T06:13:26.410Z,,,d,,,180,349.7549999999901,timeout,eR.jpg,,,80186.40000000596,80185.90000000596,79828.40000000596,79829.20000000298,79686.122,80035.877,
刺激提示,canvas.Screen,9_0_3,2023-01-15T06:13:27.778Z,,,d,false,d,180,1511.323000002987,response,eR.jpg,b,keypress(f),81554.40000000596,81547.20000000298,80185.90000000596,80186.80000001192,80035.877,81434.897,
フィードバック(0.5秒),canvas.Screen,9_0_4,2023-01-15T06:13:28.153Z,,,d,,,180,349.75500000000466,timeout,eR.jpg,,,81929.80000001192,81929.60000000894,81401.587,81556.70000000298,81434.897,81784.652,
トライアル,flow.Sequence,9_0,2023-01-15T06:13:28.154Z,,,d,,,180,3442.638000008941,completion,eR.jpg,,,81930,81929.60000000894,78611.80000001192,78612.60000000894,78486.962,81784.652,
空白時間1 (0.5秒),canvas.Screen,9_1_0,2023-01-15T06:13:28.505Z,,,d,,,0,349.75500000000466,timeout,eR.jpg,,,82281.80000001192,82281.60000000894,81929.60000000894,81930.10000000894,81784.652,82134.407,
注視(1秒),canvas.Screen,9_1_1,2023-01-15T06:13:29.354Z,,,d,,,0,849.4049999999988,timeout,eR.jpg,,,83130.30000001192,83129.80000001192,82281.60000000894,82281.90000000596,82134.407,82983.812,
空白時間2 (0.5秒),canvas.Screen,9_1_2,2023-01-15T06:13:29.711Z,,,d,,,0,349.7549999999901,timeout,eR.jpg,,,83487.70000000298,83487.20000000298,83129.80000001192,83130.70000000298,82983.812,83333.567,
刺激提示,canvas.Screen,9_1_3,2023-01-15T06:13:30.635Z,,,d,true,d,0,1071.2330000119255,response,eR.jpg,d,keypress(j),84411.5,84404.80000001192,83487.20000000298,83488.10000000894,83333.567,84282.902,
フィードバック(0.5秒),canvas.Screen,9_1_4,2023-01-15T06:13:31.007Z,,,d,,,0,349.75500000000466,timeout,eR.jpg,,,84783.70000000298,84783.20000000298,84266.247,84413.80000001192,84282.902,84632.657,
トライアル,flow.Sequence,9_1,2023-01-15T06:13:31.008Z,,,d,,,0,2998.5480000029784,completion,eR.jpg,,,84784.40000000596,84783.20000000298,81929.60000000894,81930.10000000894,81784.652,84632.657,
空白時間1 (0.5秒),canvas.Screen,9_2_0,2023-01-15T06:13:31.359Z,,,d,,,135,349.7549999999901,timeout,eR.jpg,,,85135.70000000298,85135.30000001192,84783.20000000298,84784.70000000298,84632.657,84982.412,
注視(1秒),canvas.Screen,9_2_1,2023-01-15T06:13:32.202Z,,,d,,,135,849.4049999999988,timeout,eR.jpg,,,85978.40000000596,85977.90000000596,85135.30000001192,85136.10000000894,84982.412,85831.817,
空白時間2 (0.5秒),canvas.Screen,9_2_2,2023-01-15T06:13:32.559Z,,,d,,,135,349.75500000000466,timeout,eR.jpg,,,86335.70000000298,86335.20000000298,85977.90000000596,85978.70000000298,85831.817,86181.572,
刺激提示,canvas.Screen,9_2_3,2023-01-15T06:13:33.353Z,,,d,true,d,135,941.3280000059603,response,eR.jpg,d,keypress(j),87129.70000000298,87122.90000000596,86335.20000000298,86336.20000000298,86181.572,86997.667,
フィードバック(0.5秒),canvas.Screen,9_2_4,2023-01-15T06:13:33.717Z,,,d,,,135,349.75500000000466,timeout,eR.jpg,,,87493,87492.5,86981.012,87132,86997.667,87347.422,
トライアル,flow.Sequence,9_2,2023-01-15T06:13:33.717Z,,,d,,,135,2859.8429999999935,completion,eR.jpg,,,87493.70000000298,87492.5,84783.20000000298,84784.60000000894,84632.657,87347.422,
空白時間1 (0.5秒),canvas.Screen,9_3_0,2023-01-15T06:13:34.069Z,,,d,,,225,349.7549999999901,timeout,eR.jpg,,,87845,87844.5,87492.5,87494,87347.422,87697.177,
注視(1秒),canvas.Screen,9_3_1,2023-01-15T06:13:34.917Z,,,d,,,225,849.7830000000104,timeout,eR.jpg,,,88692.90000000596,88692.5,87844.5,87845.30000001192,87697.177,88546.96,
空白時間2 (0.5秒),canvas.Screen,9_3_2,2023-01-15T06:13:35.269Z,,,d,,,225,349.7549999999901,timeout,eR.jpg,,,89045,89044.60000000894,88692.5,88693.30000001192,88546.96,88896.715,
刺激提示,canvas.Screen,9_3_3,2023-01-15T06:13:36.360Z,,,d,true,d,225,1232.4850000029837,response,eR.jpg,d,keypress(j),90136,90129.20000000298,89044.60000000894,89045.40000000596,88896.715,90012.6,
フィードバック(0.5秒),canvas.Screen,9_3_4,2023-01-15T06:13:36.741Z,,,d,,,225,349.7549999999901,timeout,eR.jpg,,,90517,90516.5,89995.945,90138,90012.6,90362.355,
トライアル,flow.Sequence,9_3,2023-01-15T06:13:36.741Z,,,d,,,225,3169.077999999994,completion,eR.jpg,,,90517.70000000298,90516.5,87492.5,87493.80000001192,87347.422,90362.355,
空白時間1 (0.5秒),canvas.Screen,9_4_0,2023-01-15T06:13:37.087Z,,,d,,,270,349.75500000000466,timeout,eR.jpg,,,90863.60000000894,90863.10000000894,90516.5,90517.90000000596,90362.355,90712.11,
注視(1秒),canvas.Screen,9_4_1,2023-01-15T06:13:37.930Z,,,d,,,270,849.4049999999988,timeout,eR.jpg,,,91706.30000001192,91705.80000001192,90863.10000000894,90864,90712.11,91561.515,
空白時間2 (0.5秒),canvas.Screen,9_4_2,2023-01-15T06:13:38.287Z,,,d,,,270,349.75500000000466,timeout,eR.jpg,,,92063.70000000298,92063.20000000298,91705.80000001192,91706.70000000298,91561.515,91911.27,
刺激提示,canvas.Screen,9_4_3,2023-01-15T06:13:38.990Z,,,d,true,d,270,851.4300000029762,response,eR.jpg,d,keypress(j),92765.80000001192,92762.70000000298,92063.20000000298,92064,91911.27,92627.435,
フィードバック(0.5秒),canvas.Screen,9_4_4,2023-01-15T06:13:39.354Z,,,d,,,270,349.75500000000466,timeout,eR.jpg,,,93130.40000000596,93129.90000000596,92610.78,92767.10000000894,92627.435,92977.19,
トライアル,flow.Sequence,9_4,2023-01-15T06:13:39.355Z,,,d,,,270,2767.5450000059645,completion,eR.jpg,,,93131.10000000894,93129.90000000596,90516.5,90517.80000001192,90362.355,92977.19,
空白時間1 (0.5秒),canvas.Screen,9_5_0,2023-01-15T06:13:39.705Z,,,b,,,270,349.75500000000466,timeout,e.jpg,,,93481.70000000298,93481.10000000894,93129.90000000596,93131.30000001192,92977.19,93326.945,
注視(1秒),canvas.Screen,9_5_1,2023-01-15T06:13:40.549Z,,,b,,,270,849.4049999999988,timeout,e.jpg,,,94324.90000000596,94324.5,93481.10000000894,93482,93326.945,94176.35,
空白時間2 (0.5秒),canvas.Screen,9_5_2,2023-01-15T06:13:40.901Z,,,b,,,270,349.7549999999901,timeout,e.jpg,,,94677,94676.40000000596,94324.5,94325.30000001192,94176.35,94526.105,
刺激提示,canvas.Screen,9_5_3,2023-01-15T06:13:41.683Z,,,b,true,b,270,926.695000011925,response,e.jpg,b,keypress(f),95459.10000000894,95452.80000001192,94676.40000000596,94677.30000001192,94526.105,95325.545,
フィードバック(0.5秒),canvas.Screen,9_5_4,2023-01-15T06:13:42.047Z,,,b,,,270,349.75500000000466,timeout,e.jpg,,,95823.60000000894,95823.10000000894,95308.89,95461.20000000298,95325.545,95675.3,
トライアル,flow.Sequence,9_5,2023-01-15T06:13:42.048Z,,,b,,,270,2845.9100000089384,completion,e.jpg,,,95824.20000000298,95823.10000000894,93129.90000000596,93131.30000001192,92977.19,95675.3,
空白時間1 (0.5秒),canvas.Screen,9_6_0,2023-01-15T06:13:42.399Z,,,b,,,45,349.7549999999901,timeout,e.jpg,,,96175.60000000894,96175.10000000894,95823.10000000894,95824.5,95675.3,96025.055,
注視(1秒),canvas.Screen,9_6_1,2023-01-15T06:13:43.242Z,,,b,,,45,849.4050000000134,timeout,e.jpg,,,97018.40000000596,97017.90000000596,96175.10000000894,96175.90000000596,96025.055,96874.46,
空白時間2 (0.5秒),canvas.Screen,9_6_2,2023-01-15T06:13:43.594Z,,,b,,,45,349.7549999999901,timeout,e.jpg,,,97370.30000001192,97369.80000001192,97017.90000000596,97018.70000000298,96874.46,97224.215,
刺激提示,canvas.Screen,9_6_3,2023-01-15T06:13:44.584Z,,,b,true,b,45,1128.7850000000035,response,e.jpg,b,keypress(f),98359.80000001192,98353,97369.80000001192,97370.70000000298,97224.215,98240.17,
フィードバック(0.5秒),canvas.Screen,9_6_4,2023-01-15T06:13:45.089Z,,,b,,,45,500.04499999999825,timeout,e.jpg,,,98865.10000000894,98723.56,98206.86,98362,98240.17,98740.215,
トライアル,flow.Sequence,9_6,2023-01-15T06:13:45.089Z,,,b,,,45,3048.2599999999948,completion,e.jpg,,,98865.30000001192,98723.56,95823.10000000894,95824.40000000596,95675.3,98740.215,
空白時間1 (0.5秒),canvas.Screen,9_7_0,2023-01-15T06:13:45.460Z,,,b,,,180,349.75500000000466,timeout,e.jpg,,,99236.5,99236.30000001192,98723.56,98865.5,98740.215,99089.97,
注視(1秒),canvas.Screen,9_7_1,2023-01-15T06:13:46.314Z,,,b,,,180,849.4049999999988,timeout,e.jpg,,,100090.30000001192,100089.80000001192,99236.30000001192,99236.60000000894,99089.97,99939.375,
空白時間2 (0.5秒),canvas.Screen,9_7_2,2023-01-15T06:13:46.661Z,,,b,,,180,349.75500000000466,timeout,e.jpg,,,100437,100436.5,100089.80000001192,100090.70000000298,99939.375,100289.13,
刺激提示,canvas.Screen,9_7_3,2023-01-15T06:13:47.629Z,,,b,false,b,180,1108.470000008936,response,e.jpg,d,keypress(j),101405,101397.60000000894,100436.5,100437.40000000596,100289.13,101288.43,
フィードバック(0.5秒),canvas.Screen,9_7_4,2023-01-15T06:13:48.015Z,,,b,,,180,349.75500000000466,timeout,e.jpg,,,101791.5,101791,101255.12,101407.20000000298,101288.43,101638.185,
トライアル,flow.Sequence,9_7,2023-01-15T06:13:48.016Z,,,b,,,180,3050.7850000000035,completion,e.jpg,,,101792.10000000894,101791,98723.56,98865.40000000596,98740.215,101638.185,
空白時間1 (0.5秒),canvas.Screen,9_8_0,2023-01-15T06:13:48.367Z,,,d,,,45,349.75500000000466,timeout,eR.jpg,,,102143.60000000894,102143.10000000894,101791,101792.30000001192,101638.185,101987.94,
注視(1秒),canvas.Screen,9_8_1,2023-01-15T06:13:49.205Z,,,d,,,45,849.4049999999988,timeout,eR.jpg,,,102980.90000000596,102980.40000000596,102143.10000000894,102143.90000000596,101987.94,102837.345,
空白時間2 (0.5秒),canvas.Screen,9_8_2,2023-01-15T06:13:49.557Z,,,d,,,45,349.75500000000466,timeout,eR.jpg,,,103332.90000000596,103332.5,102980.40000000596,102981.40000000596,102837.345,103187.1,
刺激提示,canvas.Screen,9_8_3,2023-01-15T06:13:50.646Z,,,d,true,d,45,1227.8999999999942,response,eR.jpg,d,keypress(j),104421.80000001192,104415,103332.5,103333.30000001192,103187.1,104302.985,
フィードバック(0.5秒),canvas.Screen,9_8_4,2023-01-15T06:13:51.029Z,,,d,,,45,349.75500000000466,timeout,eR.jpg,,,104804.90000000596,104804.40000000596,104269.675,104424,104302.985,104652.74,
トライアル,flow.Sequence,9_8,2023-01-15T06:13:51.029Z,,,d,,,45,3166.215000005963,completion,eR.jpg,,,104805.5,104804.40000000596,101791,101792.30000001192,101638.185,104652.74,
空白時間1 (0.5秒),canvas.Screen,9_9_0,2023-01-15T06:13:51.381Z,,,b,,,225,349.7549999999901,timeout,e.jpg,,,105157.60000000894,105157.20000000298,104804.40000000596,104805.70000000298,104652.74,105002.495,
注視(1秒),canvas.Screen,9_9_1,2023-01-15T06:13:52.223Z,,,b,,,225,849.4049999999988,timeout,e.jpg,,,105999.60000000894,105999.20000000298,105157.20000000298,105157.80000001192,105002.495,105851.9,
空白時間2 (0.5秒),canvas.Screen,9_9_2,2023-01-15T06:13:52.582Z,,,b,,,225,366.4100000000035,timeout,e.jpg,,,106357.80000001192,106357.20000000298,105999.20000000298,105999.90000000596,105851.9,106218.31,
刺激提示,canvas.Screen,9_9_3,2023-01-15T06:13:53.827Z,,,b,true,b,225,1377.6900000000023,response,e.jpg,b,keypress(f),107603.40000000596,107596,106357.20000000298,106358.10000000894,106218.31,107467.435,
フィードバック(0.5秒),canvas.Screen,9_9_4,2023-01-15T06:13:54.191Z,,,b,,,225,349.75500000000466,timeout,e.jpg,,,107967.60000000894,107967.10000000894,107450.78,107605.70000000298,107467.435,107817.19,
トライアル,flow.Sequence,9_9,2023-01-15T06:13:54.192Z,,,b,,,225,3314.3600000089355,completion,e.jpg,,,107968.30000001192,107967.10000000894,104804.40000000596,104805.60000000894,104652.74,107817.19,
空白時間1 (0.5秒),canvas.Screen,9_10_0,2023-01-15T06:13:54.538Z,,,b,,,0,349.75500000000466,timeout,e.jpg,,,108314.30000001192,108313.80000001192,107967.10000000894,107968.60000000894,107817.19,108166.945,
注視(1秒),canvas.Screen,9_10_1,2023-01-15T06:13:55.386Z,,,b,,,0,849.4049999999988,timeout,e.jpg,,,109162.20000000298,109161.80000001192,108313.80000001192,108314.70000000298,108166.945,109016.35,
空白時間2 (0.5秒),canvas.Screen,9_10_2,2023-01-15T06:13:55.867Z,,,b,,,0,500.054999999993,timeout,e.jpg,,,109642.70000000298,109499.75,109161.80000001192,109162.60000000894,109016.35,109516.405,
刺激提示,canvas.Screen,9_10_3,2023-01-15T06:13:56.595Z,,,b,true,b,0,848.3950000119221,response,e.jpg,b,keypress(f),110371.40000000596,110364.80000001192,109499.75,109643.10000000894,109516.405,110249.225,
フィードバック(0.5秒),canvas.Screen,9_10_4,2023-01-15T06:13:56.970Z,,,b,,,0,349.7549999999901,timeout,e.jpg,,,110746.30000001192,110745.80000001192,110232.57,110373.70000000298,110249.225,110598.98,
トライアル,flow.Sequence,9_10,2023-01-15T06:13:56.971Z,,,b,,,0,2928.6100000119186,completion,e.jpg,,,110746.90000000596,110745.80000001192,107967.10000000894,107968.5,107817.19,110598.98,
空白時間1 (0.5秒),canvas.Screen,9_11_0,2023-01-15T06:13:57.327Z,,,b,,,90,349.75500000000466,timeout,e.jpg,,,111103.60000000894,111103.10000000894,110745.80000001192,110747.20000000298,110598.98,110948.735,
注視(1秒),canvas.Screen,9_11_1,2023-01-15T06:13:58.165Z,,,b,,,90,849.4049999999988,timeout,e.jpg,,,111941,111940.40000000596,111103.10000000894,111103.90000000596,110948.735,111798.14,
空白時間2 (0.5秒),canvas.Screen,9_11_2,2023-01-15T06:13:58.528Z,,,b,,,90,366.4100000000035,timeout,e.jpg,,,112303.80000001192,112303.20000000298,111940.40000000596,111941.40000000596,111798.14,112164.55,
刺激提示,canvas.Screen,9_11_3,2023-01-15T06:13:59.351Z,,,b,true,b,90,955.3500000059576,response,e.jpg,b,keypress(f),113127.40000000596,113119.90000000596,112303.20000000298,112304.20000000298,112164.55,112997.3,
フィードバック(0.5秒),canvas.Screen,9_11_4,2023-01-15T06:13:59.721Z,,,b,,,90,349.7549999999901,timeout,e.jpg,,,113497.30000001192,113497.10000000894,112980.645,113129.60000000894,112997.3,113347.055,
トライアル,flow.Sequence,9_11,2023-01-15T06:13:59.721Z,,,b,,,90,2898.1200000089448,completion,e.jpg,,,113497.60000000894,113497.10000000894,110745.80000001192,110747.20000000298,110598.98,113347.055,
空白時間1 (0.5秒),canvas.Screen,9_12_0,2023-01-15T06:14:00.068Z,,,b,,,315,349.75500000000466,timeout,e.jpg,,,113844.60000000894,113844.30000001192,113497.10000000894,113497.60000000894,113347.055,113696.81,
注視(1秒),canvas.Screen,9_12_1,2023-01-15T06:14:00.912Z,,,b,,,315,849.4049999999988,timeout,e.jpg,,,114687.80000001192,114687.20000000298,113844.30000001192,113844.60000000894,113696.81,114546.215,
空白時間2 (0.5秒),canvas.Screen,9_12_2,2023-01-15T06:14:01.275Z,,,b,,,315,349.75500000000466,timeout,e.jpg,,,115051.5,115051,114687.20000000298,114688.10000000894,114546.215,114895.97,
刺激提示,canvas.Screen,9_12_3,2023-01-15T06:14:01.861Z,,,b,true,b,315,734.1300000089395,response,e.jpg,b,keypress(f),115636.90000000596,115630.10000000894,115051,115051.80000001192,114895.97,115512.205,
フィードバック(0.5秒),canvas.Screen,9_12_4,2023-01-15T06:14:02.240Z,,,b,,,315,349.75500000000466,timeout,e.jpg,,,116015.70000000298,116015.30000001192,115495.55,115639.20000000298,115512.205,115861.96,
トライアル,flow.Sequence,9_12,2023-01-15T06:14:02.240Z,,,b,,,315,2668.245000011928,completion,e.jpg,,,116016.30000001192,116015.30000001192,113497.10000000894,113497.60000000894,113347.055,115861.96,
空白時間1 (0.5秒),canvas.Screen,9_13_0,2023-01-15T06:14:02.592Z,,,d,,,90,366.40999999998894,timeout,eR.jpg,,,116367.90000000596,116367.40000000596,116015.30000001192,116016.60000000894,115861.96,116228.37,
注視(1秒),canvas.Screen,9_13_1,2023-01-15T06:14:03.445Z,,,d,,,90,849.4049999999988,timeout,eR.jpg,,,117221,117220.5,116367.40000000596,116368.30000001192,116228.37,117077.775,
空白時間2 (0.5秒),canvas.Screen,9_13_2,2023-01-15T06:14:03.802Z,,,d,,,90,349.75500000000466,timeout,eR.jpg,,,117578.30000001192,117577.80000001192,117220.5,117221.30000001192,117077.775,117427.53,
刺激提示,canvas.Screen,9_13_3,2023-01-15T06:14:04.778Z,,,d,true,d,90,1119.5700000089419,response,eR.jpg,d,keypress(j),118553.80000001192,118547.10000000894,117577.80000001192,117578.70000000298,117427.53,118426.83,
フィードバック(0.5秒),canvas.Screen,9_13_4,2023-01-15T06:14:05.151Z,,,d,,,90,349.75500000000466,timeout,eR.jpg,,,118927.60000000894,118927,118410.175,118555.90000000596,118426.83,118776.585,
トライアル,flow.Sequence,9_13,2023-01-15T06:14:05.152Z,,,d,,,90,3065.0399999999936,completion,eR.jpg,,,118928.20000000298,118927,116015.30000001192,116016.60000000894,115861.96,118776.585,
空白時間1 (0.5秒),canvas.Screen,9_14_0,2023-01-15T06:14:05.504Z,,,d,,,315,349.7549999999901,timeout,eR.jpg,,,119279.60000000894,119279.20000000298,118927,118928.40000000596,118776.585,119126.34,
注視(1秒),canvas.Screen,9_14_1,2023-01-15T06:14:06.346Z,,,d,,,315,849.7850000000035,timeout,eR.jpg,,,120122.30000001192,120121.70000000298,119279.20000000298,119279.90000000596,119126.34,119976.125,
空白時間2 (0.5秒),canvas.Screen,9_14_2,2023-01-15T06:14:06.706Z,,,d,,,315,366.4100000000035,timeout,eR.jpg,,,120482.5,120482.10000000894,120121.70000000298,120122.60000000894,119976.125,120342.535,
刺激提示,canvas.Screen,9_14_3,2023-01-15T06:14:07.381Z,,,d,true,d,315,807.5650000089372,response,eR.jpg,d,keypress(j),121157,121150.10000000894,120482.10000000894,120482.90000000596,120342.535,121042.045,
フィードバック(0.5秒),canvas.Screen,9_14_4,2023-01-15T06:14:07.770Z,,,d,,,315,349.75500000000466,timeout,eR.jpg,,,121546.30000001192,121545.80000001192,121008.735,121159.5,121042.045,121391.8,
トライアル,flow.Sequence,9_14,2023-01-15T06:14:07.771Z,,,d,,,315,2769.2150000119145,completion,eR.jpg,,,121546.90000000596,121545.80000001192,118927,118928.40000000596,118776.585,121391.8,
空白時間1 (0.5秒),canvas.Screen,9_15_0,2023-01-15T06:14:08.117Z,,,b,,,135,349.7549999999901,timeout,e.jpg,,,121893,121892.5,121545.80000001192,121547.20000000298,121391.8,121741.555,
注視(1秒),canvas.Screen,9_15_1,2023-01-15T06:14:08.960Z,,,b,,,135,849.4050000000134,timeout,e.jpg,,,122735.70000000298,122735.20000000298,121892.5,121893.40000000596,121741.555,122590.96,
空白時間2 (0.5秒),canvas.Screen,9_15_2,2023-01-15T06:14:09.317Z,,,b,,,135,349.7549999999901,timeout,e.jpg,,,123092.90000000596,123092.5,122735.20000000298,122736.10000000894,122590.96,122940.715,
刺激提示,canvas.Screen,9_15_3,2023-01-15T06:14:09.978Z,,,b,true,b,135,806.9850000029837,response,e.jpg,b,keypress(f),123754.40000000596,123747.70000000298,123092.5,123093.30000001192,122940.715,123623.57,
フィードバック(0.5秒),canvas.Screen,9_15_4,2023-01-15T06:14:10.347Z,,,b,,,135,349.7549999999901,timeout,e.jpg,,,124123.20000000298,124122.70000000298,123606.915,123756.60000000894,123623.57,123973.325,
トライアル,flow.Sequence,9_15,2023-01-15T06:14:10.348Z,,,b,,,135,2730.9000000029773,completion,e.jpg,,,124124,124122.70000000298,121545.80000001192,121547.10000000894,121391.8,123973.325,
タスクのセット,flow.Loop,9,2023-01-15T06:14:10.348Z,,,,,,,45635.73800000298,completion,,,,124124.20000000298,124122.70000000298,78611.80000001192,78612.5,78486.962,123973.325,
空白時間1 (0.5秒),canvas.Screen,10_0_0,2023-01-15T06:14:10.698Z,,,b,,,0,349.75500000000466,timeout,e.jpg,,,124474.40000000596,124473.90000000596,124122.70000000298,124124.60000000894,123973.325,124323.08,
注視(1秒),canvas.Screen,10_0_1,2023-01-15T06:14:11.541Z,,,b,,,0,849.4049999999988,timeout,e.jpg,,,125316.90000000596,125316.5,124473.90000000596,124474.70000000298,124323.08,125172.485,
空白時間2 (0.5秒),canvas.Screen,10_0_2,2023-01-15T06:14:11.898Z,,,b,,,0,349.75500000000466,timeout,e.jpg,,,125674.20000000298,125673.70000000298,125316.5,125317.40000000596,125172.485,125522.24,
刺激提示,canvas.Screen,10_0_3,2023-01-15T06:14:12.446Z,,,b,true,b,0,693.2599999999948,response,e.jpg,b,keypress(f),126221.60000000894,126215.5,125673.70000000298,125674.5,125522.24,126105.165,
フィードバック(0.5秒),canvas.Screen,10_0_4,2023-01-15T06:14:12.834Z,,,b,,,0,366.4100000000035,timeout,e.jpg,,,126610.20000000298,126609.60000000894,126071.855,126223.60000000894,126105.165,126471.575,
トライアル,flow.Sequence,10_0,2023-01-15T06:14:12.835Z,,,b,,,0,2636.2750000089436,completion,e.jpg,,,126610.80000001192,126609.60000000894,124122.70000000298,124124.5,123973.325,126471.575,
空白時間1 (0.5秒),canvas.Screen,10_1_0,2023-01-15T06:14:13.200Z,,,d,,,0,349.75500000000466,timeout,eR.jpg,,,126975.70000000298,126975.20000000298,126609.60000000894,126611.10000000894,126471.575,126821.33,
注視(1秒),canvas.Screen,10_1_1,2023-01-15T06:14:14.042Z,,,d,,,0,849.4049999999988,timeout,eR.jpg,,,127818.40000000596,127817.90000000596,126975.20000000298,126976,126821.33,127670.735,
空白時間2 (0.5秒),canvas.Screen,10_1_2,2023-01-15T06:14:14.400Z,,,d,,,0,349.75500000000466,timeout,eR.jpg,,,128175.70000000298,128175.20000000298,127817.90000000596,127818.70000000298,127670.735,128020.49,
刺激提示,canvas.Screen,10_1_3,2023-01-15T06:14:15.199Z,,,d,true,d,0,947.5099999999948,response,eR.jpg,d,keypress(j),128974.90000000596,128968,128175.20000000298,128176,128020.49,128853.24,
フィードバック(0.5秒),canvas.Screen,10_1_4,2023-01-15T06:14:15.572Z,,,d,,,0,349.7549999999901,timeout,eR.jpg,,,129348.40000000596,129348.20000000298,128836.585,128977.10000000894,128853.24,129202.995,
トライアル,flow.Sequence,10_1,2023-01-15T06:14:15.573Z,,,d,,,0,2876.625000002983,completion,eR.jpg,,,129348.70000000298,129348.20000000298,126609.60000000894,126611,126471.575,129202.995,
空白時間1 (0.5秒),canvas.Screen,10_2_0,2023-01-15T06:14:16.052Z,,,b,,,270,500.0280000000057,timeout,e.jpg,,,129828.10000000894,129686.368,129348.20000000298,129348.80000001192,129202.995,129703.023,
注視(1秒),canvas.Screen,10_2_1,2023-01-15T06:14:16.922Z,,,b,,,270,849.4049999999988,timeout,e.jpg,,,130698.30000001192,130697.80000001192,129686.368,129828.20000000298,129703.023,130552.428,
空白時間2 (0.5秒),canvas.Screen,10_2_2,2023-01-15T06:14:17.280Z,,,b,,,270,349.75500000000466,timeout,e.jpg,,,131055.60000000894,131055.20000000298,130697.80000001192,130698.60000000894,130552.428,130902.183,
刺激提示,canvas.Screen,10_2_3,2023-01-15T06:14:18.087Z,,,b,true,b,270,952.8169999999955,response,e.jpg,b,keypress(f),131862.70000000298,131855,131055.20000000298,131056,130902.183,131734.933,
フィードバック(0.5秒),canvas.Screen,10_2_4,2023-01-15T06:14:18.458Z,,,b,,,270,349.75500000000466,timeout,e.jpg,,,132234.30000001192,132233.70000000298,131718.278,131864.90000000596,131734.933,132084.688,
トライアル,flow.Sequence,10_2,2023-01-15T06:14:18.459Z,,,b,,,270,3030.705000002985,completion,e.jpg,,,132234.90000000596,132233.70000000298,129348.20000000298,129348.70000000298,129202.995,132084.688,
空白時間1 (0.5秒),canvas.Screen,10_3_0,2023-01-15T06:14:18.810Z,,,b,,,225,349.75500000000466,timeout,e.jpg,,,132586.20000000298,132585.70000000298,132233.70000000298,132235.20000000298,132084.688,132434.443,
注視(1秒),canvas.Screen,10_3_1,2023-01-15T06:14:19.651Z,,,b,,,225,849.4049999999988,timeout,e.jpg,,,133427,133426.40000000596,132585.70000000298,132586.60000000894,132434.443,133283.848,
空白時間2 (0.5秒),canvas.Screen,10_3_2,2023-01-15T06:14:20.010Z,,,b,,,225,349.75500000000466,timeout,e.jpg,,,133785.70000000298,133785.30000001192,133426.40000000596,133427.30000001192,133283.848,133633.603,
刺激提示,canvas.Screen,10_3_3,2023-01-15T06:14:20.725Z,,,b,true,b,225,860.4970000089379,response,e.jpg,b,keypress(f),134501.10000000894,134494.10000000894,133785.30000001192,133786.10000000894,133633.603,134383.078,
フィードバック(0.5秒),canvas.Screen,10_3_4,2023-01-15T06:14:21.109Z,,,b,,,225,349.75500000000466,timeout,e.jpg,,,134885.10000000894,134884.60000000894,134349.768,134503.20000000298,134383.078,134732.833,
トライアル,flow.Sequence,10_3,2023-01-15T06:14:21.110Z,,,b,,,225,2799.912000008946,completion,e.jpg,,,134885.70000000298,134884.60000000894,132233.70000000298,132235.10000000894,132084.688,134732.833,
空白時間1 (0.5秒),canvas.Screen,10_4_0,2023-01-15T06:14:21.461Z,,,b,,,45,349.75499999997555,timeout,e.jpg,,,135237,135236.5,134884.60000000894,134886,134732.833,135082.588,
注視(1秒),canvas.Screen,10_4_1,2023-01-15T06:14:22.299Z,,,b,,,45,849.4049999999988,timeout,e.jpg,,,136074.70000000298,136074.20000000298,135236.5,135237.40000000596,135082.588,135931.993,
空白時間2 (0.5秒),canvas.Screen,10_4_2,2023-01-15T06:14:22.661Z,,,b,,,45,349.75500000000466,timeout,e.jpg,,,136437.10000000894,136436.5,136074.20000000298,136075.10000000894,135931.993,136281.748,
刺激提示,canvas.Screen,10_4_3,2023-01-15T06:14:23.205Z,,,b,true,b,45,692.1520000059681,response,e.jpg,b,keypress(f),136980.30000001192,136973.90000000596,136436.5,136437.40000000596,136281.748,136848.018,
フィードバック(0.5秒),canvas.Screen,10_4_4,2023-01-15T06:14:23.573Z,,,b,,,45,349.75499999997555,timeout,e.jpg,,,137348.90000000596,137348.5,136831.363,136982.80000001192,136848.018,137197.773,
トライアル,flow.Sequence,10_4,2023-01-15T06:14:23.574Z,,,b,,,45,2615.6669999999867,completion,e.jpg,,,137349.60000000894,137348.5,134884.60000000894,134886,134732.833,137197.773,
空白時間1 (0.5秒),canvas.Screen,10_5_0,2023-01-15T06:14:23.919Z,,,d,,,180,349.75500000000466,timeout,eR.jpg,,,137695,137694.60000000894,137348.5,137349.80000001192,137197.773,137547.528,
注視(1秒),canvas.Screen,10_5_1,2023-01-15T06:14:24.768Z,,,d,,,180,849.4049999999988,timeout,eR.jpg,,,138543.60000000894,138543.20000000298,137694.60000000894,137695.5,137547.528,138396.933,
空白時間2 (0.5秒),canvas.Screen,10_5_2,2023-01-15T06:14:25.125Z,,,d,,,180,349.75500000000466,timeout,eR.jpg,,,138901,138900.5,138543.20000000298,138544,138396.933,138746.688,
刺激提示,canvas.Screen,10_5_3,2023-01-15T06:14:26.266Z,,,d,true,d,180,1288.412000008946,response,eR.jpg,d,keypress(j),140041.90000000596,140035.10000000894,138900.5,138901.40000000596,138746.688,139912.538,
フィードバック(0.5秒),canvas.Screen,10_5_4,2023-01-15T06:14:26.763Z,,,d,,,180,500.05100000000675,timeout,eR.jpg,,,140538.80000001192,140395.934,139895.883,140043.90000000596,139912.538,140412.589,
トライアル,flow.Sequence,10_5,2023-01-15T06:14:26.764Z,,,d,,,180,3198.161000000022,completion,eR.jpg,,,140539.40000000596,140395.934,137348.5,137349.80000001192,137197.773,140412.589,
空白時間1 (0.5秒),canvas.Screen,10_6_0,2023-01-15T06:14:27.136Z,,,b,,,135,349.75500000000466,timeout,e.jpg,,,140911.70000000298,140911.20000000298,140395.934,140539.70000000298,140412.589,140762.344,
注視(1秒),canvas.Screen,10_6_1,2023-01-15T06:14:27.979Z,,,b,,,135,849.4049999999988,timeout,e.jpg,,,141754.40000000596,141753.90000000596,140911.20000000298,140912,140762.344,141611.749,
空白時間2 (0.5秒),canvas.Screen,10_6_2,2023-01-15T06:14:28.336Z,,,b,,,135,349.75499999997555,timeout,e.jpg,,,142111.60000000894,142111.10000000894,141753.90000000596,141754.80000001192,141611.749,141961.504,
刺激提示,canvas.Screen,10_6_3,2023-01-15T06:14:29.364Z,,,b,true,b,135,1171.4960000000137,response,e.jpg,b,keypress(f),143139.5,143133,142111.10000000894,142111.90000000596,141961.504,143010.769,
フィードバック(0.5秒),canvas.Screen,10_6_4,2023-01-15T06:14:29.738Z,,,b,,,135,349.75500000000466,timeout,e.jpg,,,143514.10000000894,143513.40000000596,142994.114,143141.90000000596,143010.769,143360.524,
トライアル,flow.Sequence,10_6,2023-01-15T06:14:29.739Z,,,b,,,135,3100.8110000059532,completion,e.jpg,,,143514.80000001192,143513.40000000596,140395.934,140539.60000000894,140412.589,143360.524,
空白時間1 (0.5秒),canvas.Screen,10_7_0,2023-01-15T06:14:30.085Z,,,b,,,315,349.75500000000466,timeout,e.jpg,,,143861,143860.5,143513.40000000596,143515,143360.524,143710.279,
注視(1秒),canvas.Screen,10_7_1,2023-01-15T06:14:30.928Z,,,b,,,315,849.4049999999988,timeout,e.jpg,,,144703.70000000298,144703.20000000298,143860.5,143861.30000001192,143710.279,144559.684,
空白時間2 (0.5秒),canvas.Screen,10_7_2,2023-01-15T06:14:31.280Z,,,b,,,315,349.75500000000466,timeout,e.jpg,,,145055.70000000298,145055.10000000894,144703.20000000298,144704.10000000894,144559.684,144909.439,
刺激提示,canvas.Screen,10_7_3,2023-01-15T06:14:31.978Z,,,b,true,b,315,835.560999999987,response,e.jpg,b,keypress(f),145753.30000001192,145745,145055.10000000894,145055.90000000596,144909.439,145625.604,
フィードバック(0.5秒),canvas.Screen,10_7_4,2023-01-15T06:14:32.346Z,,,b,,,315,349.75500000000466,timeout,e.jpg,,,146121.70000000298,146121.60000000894,145608.949,145755.40000000596,145625.604,145975.359,
トライアル,flow.Sequence,10_7,2023-01-15T06:14:32.346Z,,,b,,,315,2761.076000008936,completion,e.jpg,,,146122,146121.60000000894,143513.40000000596,143514.90000000596,143360.524,145975.359,
空白時間1 (0.5秒),canvas.Screen,10_8_0,2023-01-15T06:14:32.698Z,,,b,,,90,349.75500000000466,timeout,e.jpg,,,146473.80000001192,146473.5,146121.60000000894,146122.10000000894,145975.359,146325.114,
注視(1秒),canvas.Screen,10_8_1,2023-01-15T06:14:33.541Z,,,b,,,90,849.4049999999988,timeout,e.jpg,,,147317,147316.60000000894,146473.5,146473.90000000596,146325.114,147174.519,
空白時間2 (0.5秒),canvas.Screen,10_8_2,2023-01-15T06:14:33.899Z,,,b,,,90,349.75500000000466,timeout,e.jpg,,,147674.5,147673.90000000596,147316.60000000894,147317.40000000596,147174.519,147524.274,
刺激提示,canvas.Screen,10_8_3,2023-01-15T06:14:34.648Z,,,b,true,b,90,893.2259999999951,response,e.jpg,b,keypress(f),148424.10000000894,148417.5,147673.90000000596,147674.80000001192,147524.274,148290.404,
フィードバック(0.5秒),canvas.Screen,10_8_4,2023-01-15T06:14:35.019Z,,,b,,,90,349.75500000000466,timeout,e.jpg,,,148794.30000001192,148793.70000000298,148273.749,148426.10000000894,148290.404,148640.159,
トライアル,flow.Sequence,10_8,2023-01-15T06:14:35.019Z,,,b,,,90,2818.3410000029835,completion,e.jpg,,,148795,148793.70000000298,146121.60000000894,146122.10000000894,145975.359,148640.159,
空白時間1 (0.5秒),canvas.Screen,10_9_0,2023-01-15T06:14:35.365Z,,,d,,,45,349.75499999997555,timeout,eR.jpg,,,149141,149140.5,148793.70000000298,148795.20000000298,148640.159,148989.914,
注視(1秒),canvas.Screen,10_9_1,2023-01-15T06:14:36.208Z,,,d,,,45,849.4049999999988,timeout,eR.jpg,,,149983.70000000298,149983.20000000298,149140.5,149141.40000000596,148989.914,149839.319,
空白時間2 (0.5秒),canvas.Screen,10_9_2,2023-01-15T06:14:36.565Z,,,d,,,45,349.75500000000466,timeout,eR.jpg,,,150341,150340.5,149983.20000000298,149984.20000000298,149839.319,150189.074,
刺激提示,canvas.Screen,10_9_3,2023-01-15T06:14:37.518Z,,,d,true,d,45,1097.7260000119277,response,eR.jpg,d,keypress(j),151293.40000000596,151286.80000001192,150340.5,150341.40000000596,150189.074,151172.105,
フィードバック(0.5秒),canvas.Screen,10_9_4,2023-01-15T06:14:37.893Z,,,d,,,45,349.75499999997555,timeout,eR.jpg,,,151669.10000000894,151668.5,151155.45,151295.40000000596,151172.105,151521.86,
トライアル,flow.Sequence,10_9,2023-01-15T06:14:37.894Z,,,d,,,45,3028.340999999986,completion,eR.jpg,,,151669.70000000298,151668.5,148793.70000000298,148795.20000000298,148640.159,151521.86,
空白時間1 (0.5秒),canvas.Screen,10_10_0,2023-01-15T06:14:38.251Z,,,d,,,270,349.75500000000466,timeout,eR.jpg,,,152026.30000001192,152025.80000001192,151668.5,151669.90000000596,151521.86,151871.615,
注視(1秒),canvas.Screen,10_10_1,2023-01-15T06:14:39.093Z,,,d,,,270,849.4049999999988,timeout,eR.jpg,,,152868.90000000596,152868.40000000596,152025.80000001192,152026.70000000298,151871.615,152721.02,
空白時間2 (0.5秒),canvas.Screen,10_10_2,2023-01-15T06:14:39.453Z,,,d,,,270,366.4100000000035,timeout,eR.jpg,,,153229,153228.40000000596,152868.40000000596,152869.30000001192,152721.02,153087.43,
刺激提示,canvas.Screen,10_10_3,2023-01-15T06:14:40.291Z,,,d,true,d,270,972.3700000119279,response,eR.jpg,d,keypress(j),154066.40000000596,154059.80000001192,153228.40000000596,153229.30000001192,153087.43,153936.835,
フィードバック(0.5秒),canvas.Screen,10_10_4,2023-01-15T06:14:40.656Z,,,d,,,270,349.75500000000466,timeout,eR.jpg,,,154431.70000000298,154431.20000000298,153920.18,154068.5,153936.835,154286.59,
トライアル,flow.Sequence,10_10,2023-01-15T06:14:40.657Z,,,d,,,270,2909.340000002994,completion,eR.jpg,,,154432.40000000596,154431.20000000298,151668.5,151669.90000000596,151521.86,154286.59,
空白時間1 (0.5秒),canvas.Screen,10_11_0,2023-01-15T06:14:41.016Z,,,d,,,225,349.75500000000466,timeout,eR.jpg,,,154791.70000000298,154791.20000000298,154431.20000000298,154432.60000000894,154286.59,154636.345,
注視(1秒),canvas.Screen,10_11_1,2023-01-15T06:14:41.856Z,,,d,,,225,849.4049999999988,timeout,eR.jpg,,,155631.80000001192,155631.20000000298,154791.20000000298,154792,154636.345,155485.75,
空白時間2 (0.5秒),canvas.Screen,10_11_2,2023-01-15T06:14:42.213Z,,,d,,,225,349.75500000000466,timeout,eR.jpg,,,155989,155988.5,155631.20000000298,155632.10000000894,155485.75,155835.505,
刺激提示,canvas.Screen,10_11_3,2023-01-15T06:14:43.393Z,,,d,true,d,225,1325.4949999999953,response,eR.jpg,d,keypress(j),157168.30000001192,157161,155988.5,155989.30000001192,155835.505,157051.32,
フィードバック(0.5秒),canvas.Screen,10_11_4,2023-01-15T06:14:43.771Z,,,d,,,225,349.75500000000466,timeout,eR.jpg,,,157546.20000000298,157545.80000001192,157018.01,157170.5,157051.32,157401.075,
トライアル,flow.Sequence,10_11,2023-01-15T06:14:43.771Z,,,d,,,225,3259.2100000119244,completion,eR.jpg,,,157546.90000000596,157545.80000001192,154431.20000000298,154432.60000000894,154286.59,157401.075,
空白時間1 (0.5秒),canvas.Screen,10_12_0,2023-01-15T06:14:44.128Z,,,d,,,135,349.75499999997555,timeout,eR.jpg,,,157903.70000000298,157903.20000000298,157545.80000001192,157547.10000000894,157401.075,157750.83,
注視(1秒),canvas.Screen,10_12_1,2023-01-15T06:14:44.971Z,,,d,,,135,849.4049999999988,timeout,eR.jpg,,,158746.30000001192,158745.80000001192,157903.20000000298,157904,157750.83,158600.235,
空白時間2 (0.5秒),canvas.Screen,10_12_2,2023-01-15T06:14:45.328Z,,,d,,,135,349.75500000000466,timeout,eR.jpg,,,159103.70000000298,159103.20000000298,158745.80000001192,158746.70000000298,158600.235,158949.99,
刺激提示,canvas.Screen,10_12_3,2023-01-15T06:14:46.425Z,,,d,true,d,135,1244.0100000000093,response,eR.jpg,d,keypress(j),160200.80000001192,160194,159103.20000000298,159104.10000000894,158949.99,160082.53,
フィードバック(0.5秒),canvas.Screen,10_12_4,2023-01-15T06:14:46.811Z,,,d,,,135,349.75500000000466,timeout,eR.jpg,,,160586.40000000596,160585.80000001192,160049.22,160202.90000000596,160082.53,160432.285,
トライアル,flow.Sequence,10_12,2023-01-15T06:14:46.811Z,,,d,,,135,3184.7250000119093,completion,eR.jpg,,,160587,160585.80000001192,157545.80000001192,157547.10000000894,157401.075,160432.285,
空白時間1 (0.5秒),canvas.Screen,10_13_0,2023-01-15T06:14:47.283Z,,,d,,,90,500.0350000000035,timeout,eR.jpg,,,161058.30000001192,160915.665,160585.80000001192,160587.20000000298,160432.285,160932.32,
注視(1秒),canvas.Screen,10_13_1,2023-01-15T06:14:48.150Z,,,d,,,90,849.4049999999988,timeout,eR.jpg,,,161925.10000000894,161924.60000000894,160915.665,161058.60000000894,160932.32,161781.725,
空白時間2 (0.5秒),canvas.Screen,10_13_2,2023-01-15T06:14:48.501Z,,,d,,,90,349.75500000000466,timeout,eR.jpg,,,162277,162276.60000000894,161924.60000000894,161925.5,161781.725,162131.48,
刺激提示,canvas.Screen,10_13_3,2023-01-15T06:14:49.231Z,,,d,true,d,90,868.7200000029698,response,eR.jpg,d,keypress(j),163006.40000000596,163000.20000000298,162276.60000000894,162277.40000000596,162131.48,162880.955,
フィードバック(0.5秒),canvas.Screen,10_13_4,2023-01-15T06:14:49.605Z,,,d,,,90,349.75500000000466,timeout,eR.jpg,,,163380.40000000596,163380.30000001192,162864.3,163008.70000000298,162880.955,163230.71,
トライアル,flow.Sequence,10_13,2023-01-15T06:14:49.605Z,,,d,,,90,2948.0150000119174,completion,eR.jpg,,,163380.70000000298,163380.30000001192,160585.80000001192,160587.10000000894,160432.285,163230.71,
空白時間1 (0.5秒),canvas.Screen,10_14_0,2023-01-15T06:14:49.954Z,,,d,,,315,349.75500000000466,timeout,eR.jpg,,,163729.60000000894,163729.5,163380.30000001192,163380.80000001192,163230.71,163580.465,
注視(1秒),canvas.Screen,10_14_1,2023-01-15T06:14:50.800Z,,,d,,,315,849.4049999999988,timeout,eR.jpg,,,164575.60000000894,164575.20000000298,163729.5,163729.80000001192,163580.465,164429.87,
空白時間2 (0.5秒),canvas.Screen,10_14_2,2023-01-15T06:14:51.157Z,,,d,,,315,349.75500000000466,timeout,eR.jpg,,,164933,164932.5,164575.20000000298,164576,164429.87,164779.625,
刺激提示,canvas.Screen,10_14_3,2023-01-15T06:14:51.889Z,,,d,true,d,315,877.0750000029802,response,eR.jpg,d,keypress(j),165664.30000001192,165656.70000000298,164932.5,164933.30000001192,164779.625,165545.755,
フィードバック(0.5秒),canvas.Screen,10_14_4,2023-01-15T06:14:52.272Z,,,d,,,315,349.75500000000466,timeout,eR.jpg,,,166047.5,166047.10000000894,165512.445,165666.5,165545.755,165895.51,
トライアル,flow.Sequence,10_14,2023-01-15T06:14:52.273Z,,,d,,,315,2816.390000008949,completion,eR.jpg,,,166048.30000001192,166047.10000000894,163380.30000001192,163380.80000001192,163230.71,165895.51,
空白時間1 (0.5秒),canvas.Screen,10_15_0,2023-01-15T06:14:52.624Z,,,b,,,180,349.75500000000466,timeout,e.jpg,,,166399.70000000298,166399.20000000298,166047.10000000894,166048.60000000894,165895.51,166245.265,
注視(1秒),canvas.Screen,10_15_1,2023-01-15T06:14:53.467Z,,,b,,,180,849.4049999999988,timeout,e.jpg,,,167242.30000001192,167241.80000001192,166399.20000000298,166400.10000000894,166245.265,167094.67,
空白時間2 (0.5秒),canvas.Screen,10_15_2,2023-01-15T06:14:53.824Z,,,b,,,180,349.75499999997555,timeout,e.jpg,,,167599.70000000298,167599.20000000298,167241.80000001192,167242.70000000298,167094.67,167444.425,
刺激提示,canvas.Screen,10_15_3,2023-01-15T06:14:54.959Z,,,b,true,b,180,1282.475000005972,response,e.jpg,b,keypress(f),168734.40000000596,168726.90000000596,167599.20000000298,167600.10000000894,167444.425,168610.275,
フィードバック(0.5秒),canvas.Screen,10_15_4,2023-01-15T06:14:55.334Z,,,b,,,180,349.75500000000466,timeout,e.jpg,,,169109,169108.5,168593.62,168736.80000001192,168610.275,168960.03,
トライアル,flow.Sequence,10_15,2023-01-15T06:14:55.334Z,,,b,,,180,3212.9899999999907,completion,e.jpg,,,169109.70000000298,169108.5,166047.10000000894,166048.5,165895.51,168960.03,
タスクのセット,flow.Loop,10,2023-01-15T06:14:55.334Z,,,,,,,45135.175,completion,,,,169110,169108.5,124122.70000000298,124124.40000000596,123973.325,168960.03,
空白時間1 (0.5秒),canvas.Screen,11_0_0,2023-01-15T06:14:55.686Z,,,d,,,135,349.75500000000466,timeout,eR.jpg,,,169461,169460.60000000894,169108.5,169110.20000000298,168960.03,169309.785,
注視(1秒),canvas.Screen,11_0_1,2023-01-15T06:14:56.528Z,,,d,,,135,849.4049999999988,timeout,eR.jpg,,,170303,170302.5,169460.60000000894,169461.40000000596,169309.785,170159.19,
空白時間2 (0.5秒),canvas.Screen,11_0_2,2023-01-15T06:14:56.880Z,,,d,,,135,349.75500000000466,timeout,eR.jpg,,,170655.70000000298,170655.20000000298,170302.5,170303.30000001192,170159.19,170508.945,
刺激提示,canvas.Screen,11_0_3,2023-01-15T06:14:58.144Z,,,d,true,d,135,1403.855000011914,response,eR.jpg,d,keypress(j),171919.30000001192,171912.80000001192,170655.20000000298,170656.10000000894,170508.945,171791.758,
フィードバック(0.5秒),canvas.Screen,11_0_4,2023-01-15T06:14:58.518Z,,,d,,,135,349.75500000000466,timeout,eR.jpg,,,172293,172292.5,171775.103,171921.60000000894,171791.758,172141.513,
トライアル,flow.Sequence,11_0,2023-01-15T06:14:58.518Z,,,d,,,135,3332.470000000001,completion,eR.jpg,,,172293.60000000894,172292.5,169108.5,169110.20000000298,168960.03,172141.513,
空白時間1 (0.5秒),canvas.Screen,11_1_0,2023-01-15T06:14:58.870Z,,,b,,,45,349.75500000000466,timeout,e.jpg,,,172645.10000000894,172644.60000000894,172292.5,172293.90000000596,172141.513,172491.268,
注視(1秒),canvas.Screen,11_1_1,2023-01-15T06:14:59.712Z,,,b,,,45,849.4049999999988,timeout,e.jpg,,,173487.70000000298,173487.20000000298,172644.60000000894,172645.40000000596,172491.268,173340.673,
空白時間2 (0.5秒),canvas.Screen,11_1_2,2023-01-15T06:15:00.064Z,,,b,,,45,349.75500000000466,timeout,e.jpg,,,173839.70000000298,173839.20000000298,173487.20000000298,173488,173340.673,173690.428,
刺激提示,canvas.Screen,11_1_3,2023-01-15T06:15:00.629Z,,,b,true,b,45,707.2720000029658,response,e.jpg,b,keypress(f),174404.40000000596,174397.70000000298,173839.20000000298,173840.10000000894,173690.428,174273.353,
フィードバック(0.5秒),canvas.Screen,11_1_4,2023-01-15T06:15:00.998Z,,,b,,,45,349.75500000000466,timeout,e.jpg,,,174772.90000000596,174772.5,174256.698,174406.5,174273.353,174623.108,
トライアル,flow.Sequence,11_1,2023-01-15T06:15:00.998Z,,,b,,,45,2630.9869999999937,completion,e.jpg,,,174773.60000000894,174772.5,172292.5,172293.80000001192,172141.513,174623.108,
空白時間1 (0.5秒),canvas.Screen,11_2_0,2023-01-15T06:15:01.350Z,,,b,,,180,349.75500000000466,timeout,e.jpg,,,175125,175124.5,174772.5,174773.80000001192,174623.108,174972.863,
注視(1秒),canvas.Screen,11_2_1,2023-01-15T06:15:02.192Z,,,b,,,180,849.4049999999988,timeout,e.jpg,,,175967.70000000298,175967.20000000298,175124.5,175125.40000000596,174972.863,175822.268,
空白時間2 (0.5秒),canvas.Screen,11_2_2,2023-01-15T06:15:02.550Z,,,b,,,180,349.75499999997555,timeout,e.jpg,,,176325,176324.5,175967.20000000298,175968.10000000894,175822.268,176172.023,
刺激提示,canvas.Screen,11_2_3,2023-01-15T06:15:03.375Z,,,b,true,b,180,971.4770000000135,response,e.jpg,b,keypress(f),177150,177143.5,176324.5,176325.30000001192,176172.023,177021.428,
フィードバック(0.5秒),canvas.Screen,11_2_4,2023-01-15T06:15:03.749Z,,,b,,,180,349.75499999997555,timeout,e.jpg,,,177524.5,177524.30000001192,177004.773,177152.20000000298,177021.428,177371.183,
トライアル,flow.Sequence,11_2,2023-01-15T06:15:03.749Z,,,b,,,180,2901.1920000119135,completion,e.jpg,,,177524.80000001192,177524.30000001192,174772.5,174773.80000001192,174623.108,177371.183,
空白時間1 (0.5秒),canvas.Screen,11_3_0,2023-01-15T06:15:04.096Z,,,d,,,270,349.75500000000466,timeout,eR.jpg,,,177871.20000000298,177870.90000000596,177524.30000001192,177524.90000000596,177371.183,177720.938,
注視(1秒),canvas.Screen,11_3_1,2023-01-15T06:15:04.939Z,,,d,,,270,849.4049999999988,timeout,eR.jpg,,,178714.30000001192,178713.90000000596,177870.90000000596,177871.30000001192,177720.938,178570.343,
空白時間2 (0.5秒),canvas.Screen,11_3_2,2023-01-15T06:15:05.291Z,,,d,,,270,349.75500000000466,timeout,eR.jpg,,,179066.30000001192,179065.90000000596,178713.90000000596,178714.70000000298,178570.343,178920.098,
刺激提示,canvas.Screen,11_3_3,2023-01-15T06:15:06.133Z,,,d,true,d,270,980.9020000000019,response,eR.jpg,d,keypress(j),179908,179901,179065.90000000596,179066.70000000298,178920.098,179786.158,
フィードバック(0.5秒),canvas.Screen,11_3_4,2023-01-15T06:15:06.507Z,,,d,,,270,349.75500000000466,timeout,eR.jpg,,,180282.30000001192,180281.80000001192,179769.503,179910,179786.158,180135.913,
トライアル,flow.Sequence,11_3,2023-01-15T06:15:06.508Z,,,d,,,270,2910.617000011931,completion,eR.jpg,,,180283.10000000894,180281.80000001192,177524.30000001192,177524.80000001192,177371.183,180135.913,
空白時間1 (0.5秒),canvas.Screen,11_4_0,2023-01-15T06:15:06.864Z,,,d,,,180,349.75500000000466,timeout,eR.jpg,,,180639.70000000298,180639.20000000298,180281.80000001192,180283.40000000596,180135.913,180485.668,
注視(1秒),canvas.Screen,11_4_1,2023-01-15T06:15:07.707Z,,,d,,,180,849.4049999999988,timeout,eR.jpg,,,181482.10000000894,181481.60000000894,180639.20000000298,180640.10000000894,180485.668,181335.073,
空白時間2 (0.5秒),canvas.Screen,11_4_2,2023-01-15T06:15:08.184Z,,,d,,,180,500.0559999999823,timeout,eR.jpg,,,181959.90000000596,181818.474,181481.60000000894,181482.30000001192,181335.073,181835.129,
刺激提示,canvas.Screen,11_4_3,2023-01-15T06:15:09.119Z,,,d,true,d,180,1052.8710000000137,response,eR.jpg,d,keypress(j),182894.80000001192,182888,181818.474,181960.20000000298,181835.129,182767.809,
フィードバック(0.5秒),canvas.Screen,11_4_4,2023-01-15T06:15:09.488Z,,,d,,,180,349.75500000000466,timeout,eR.jpg,,,183263.70000000298,183263.20000000298,182751.154,182896.90000000596,182767.809,183117.564,
トライアル,flow.Sequence,11_4,2023-01-15T06:15:09.489Z,,,d,,,180,3127.2870000029798,completion,eR.jpg,,,183264.40000000596,183263.20000000298,180281.80000001192,180283.30000001192,180135.913,183117.564,
空白時間1 (0.5秒),canvas.Screen,11_5_0,2023-01-15T06:15:09.846Z,,,d,,,315,349.75499999997555,timeout,eR.jpg,,,183621.10000000894,183620.5,183263.20000000298,183264.70000000298,183117.564,183467.319,
注視(1秒),canvas.Screen,11_5_1,2023-01-15T06:15:10.689Z,,,d,,,315,849.4049999999988,timeout,eR.jpg,,,184463.90000000596,184463.30000001192,183620.5,183621.40000000596,183467.319,184316.724,
空白時間2 (0.5秒),canvas.Screen,11_5_2,2023-01-15T06:15:11.046Z,,,d,,,315,349.75500000000466,timeout,eR.jpg,,,184821.10000000894,184820.5,184463.30000001192,184464.20000000298,184316.724,184666.479,
刺激提示,canvas.Screen,11_5_3,2023-01-15T06:15:12.025Z,,,d,true,d,315,1127.521000000008,response,eR.jpg,d,keypress(j),185800.60000000894,185794,184820.5,184821.40000000596,184666.479,185665.779,
フィードバック(0.5秒),canvas.Screen,11_5_4,2023-01-15T06:15:12.395Z,,,d,,,315,349.75500000000466,timeout,eR.jpg,,,186170.30000001192,186169.80000001192,185649.124,185802.80000001192,185665.779,186015.534,
トライアル,flow.Sequence,11_5,2023-01-15T06:15:12.396Z,,,d,,,315,3052.236000011908,completion,eR.jpg,,,186171,186169.80000001192,183263.20000000298,183264.60000000894,183117.564,186015.534,
空白時間1 (0.5秒),canvas.Screen,11_6_0,2023-01-15T06:15:12.742Z,,,b,,,0,349.75499999997555,timeout,e.jpg,,,186516.90000000596,186516.5,186169.80000001192,186171.20000000298,186015.534,186365.289,
注視(1秒),canvas.Screen,11_6_1,2023-01-15T06:15:13.584Z,,,b,,,0,849.4049999999988,timeout,e.jpg,,,187359.70000000298,187359.20000000298,186516.5,186517.30000001192,186365.289,187214.694,
空白時間2 (0.5秒),canvas.Screen,11_6_2,2023-01-15T06:15:13.942Z,,,b,,,0,349.75500000000466,timeout,e.jpg,,,187716.90000000596,187716.5,187359.20000000298,187360.10000000894,187214.694,187564.449,
刺激提示,canvas.Screen,11_6_3,2023-01-15T06:15:14.607Z,,,b,true,b,0,811.4510000059672,response,e.jpg,b,keypress(f),188382.20000000298,188375.90000000596,187716.5,187717.30000001192,187564.449,188247.304,
フィードバック(0.5秒),canvas.Screen,11_6_4,2023-01-15T06:15:14.977Z,,,b,,,0,349.75500000000466,timeout,e.jpg,,,188751.80000001192,188751.20000000298,188230.649,188384.40000000596,188247.304,188597.059,
トライアル,flow.Sequence,11_6,2023-01-15T06:15:14.977Z,,,b,,,0,2735.666000002966,completion,e.jpg,,,188752.5,188751.20000000298,186169.80000001192,186171.20000000298,186015.534,188597.059,
空白時間1 (0.5秒),canvas.Screen,11_7_0,2023-01-15T06:15:15.318Z,,,d,,,45,349.75500000000466,timeout,eR.jpg,,,189093.10000000894,189092.5,188751.20000000298,188752.60000000894,188597.059,188946.814,
注視(1秒),canvas.Screen,11_7_1,2023-01-15T06:15:16.166Z,,,d,,,45,849.4049999999988,timeout,eR.jpg,,,189941,189940.5,189092.5,189093.40000000596,188946.814,189796.219,
空白時間2 (0.5秒),canvas.Screen,11_7_2,2023-01-15T06:15:16.517Z,,,d,,,45,349.75499999997555,timeout,eR.jpg,,,190292.20000000298,190291.90000000596,189940.5,189941.40000000596,189796.219,190145.974,
刺激提示,canvas.Screen,11_7_3,2023-01-15T06:15:17.116Z,,,d,true,d,45,732.926000005973,response,eR.jpg,d,keypress(j),190891.5,190878.90000000596,190291.90000000596,190292.5,190145.974,190762.209,
フィードバック(0.5秒),canvas.Screen,11_7_4,2023-01-15T06:15:17.483Z,,,d,,,45,349.75500000000466,timeout,eR.jpg,,,191258.40000000596,191257.90000000596,190745.554,190893,190762.209,191111.964,
トライアル,flow.Sequence,11_7,2023-01-15T06:15:17.484Z,,,d,,,45,2660.841000005952,completion,eR.jpg,,,191259,191257.90000000596,188751.20000000298,188752.60000000894,188597.059,191111.964,
空白時間1 (0.5秒),canvas.Screen,11_8_0,2023-01-15T06:15:17.840Z,,,b,,,135,349.75500000000466,timeout,e.jpg,,,191615.70000000298,191615.20000000298,191257.90000000596,191259.20000000298,191111.964,191461.719,
注視(1秒),canvas.Screen,11_8_1,2023-01-15T06:15:18.683Z,,,b,,,135,849.7849999999744,timeout,e.jpg,,,192458.30000001192,192457.90000000596,191615.20000000298,191616,191461.719,192311.504,
空白時間2 (0.5秒),canvas.Screen,11_8_2,2023-01-15T06:15:19.035Z,,,b,,,135,349.75500000000466,timeout,e.jpg,,,192810.30000001192,192809.80000001192,192457.90000000596,192458.70000000298,192311.504,192661.259,
刺激提示,canvas.Screen,11_8_3,2023-01-15T06:15:19.710Z,,,b,true,b,135,817.7410000000091,response,e.jpg,b,keypress(f),193485.40000000596,193479,192809.80000001192,192810.70000000298,192661.259,193360.769,
フィードバック(0.5秒),canvas.Screen,11_8_4,2023-01-15T06:15:20.091Z,,,b,,,135,349.75500000000466,timeout,e.jpg,,,193865.80000001192,193865.60000000894,193344.114,193487.60000000894,193360.769,193710.524,
トライアル,flow.Sequence,11_8,2023-01-15T06:15:20.091Z,,,b,,,135,2753.6360000089335,completion,e.jpg,,,193866,193865.60000000894,191257.90000000596,191259.20000000298,191111.964,193710.524,
空白時間1 (0.5秒),canvas.Screen,11_9_0,2023-01-15T06:15:20.437Z,,,d,,,0,349.75500000000466,timeout,eR.jpg,,,194212.40000000596,194212.30000001192,193865.60000000894,193866.20000000298,193710.524,194060.279,
注視(1秒),canvas.Screen,11_9_1,2023-01-15T06:15:21.281Z,,,d,,,0,849.4049999999988,timeout,eR.jpg,,,195055.70000000298,195055.30000001192,194212.30000001192,194212.5,194060.279,194909.684,
空白時間2 (0.5秒),canvas.Screen,11_9_2,2023-01-15T06:15:21.638Z,,,d,,,0,349.75500000000466,timeout,eR.jpg,,,195413.10000000894,195412.60000000894,195055.30000001192,195056.20000000298,194909.684,195259.439,
刺激提示,canvas.Screen,11_9_3,2023-01-15T06:15:22.233Z,,,d,true,d,0,741.4610000059474,response,eR.jpg,d,keypress(j),196007.70000000298,196000.90000000596,195412.60000000894,195413.60000000894,195259.439,195875.674,
フィードバック(0.5秒),canvas.Screen,11_9_4,2023-01-15T06:15:22.598Z,,,d,,,0,349.75500000000466,timeout,eR.jpg,,,196373.10000000894,196372.60000000894,195859.019,196009.80000001192,195875.674,196225.429,
トライアル,flow.Sequence,11_9,2023-01-15T06:15:22.599Z,,,d,,,0,2662.076000008936,completion,eR.jpg,,,196373.80000001192,196372.60000000894,193865.60000000894,193866.10000000894,193710.524,196225.429,
空白時間1 (0.5秒),canvas.Screen,11_10_0,2023-01-15T06:15:22.953Z,,,b,,,315,349.75500000000466,timeout,e.jpg,,,196727.90000000596,196727.40000000596,196372.60000000894,196373.90000000596,196225.429,196575.184,
注視(1秒),canvas.Screen,11_10_1,2023-01-15T06:15:23.793Z,,,b,,,315,849.4049999999988,timeout,e.jpg,,,197567.70000000298,197567.30000001192,196727.40000000596,196728.20000000298,196575.184,197424.589,
空白時間2 (0.5秒),canvas.Screen,11_10_2,2023-01-15T06:15:24.150Z,,,b,,,315,349.75500000000466,timeout,e.jpg,,,197925,197924.60000000894,197567.30000001192,197568.10000000894,197424.589,197774.344,
刺激提示,canvas.Screen,11_10_3,2023-01-15T06:15:24.662Z,,,b,true,b,315,657.0560000059486,response,e.jpg,b,keypress(f),198437.5,198431.40000000596,197924.60000000894,197925.40000000596,197774.344,198307.304,
フィードバック(0.5秒),canvas.Screen,11_10_4,2023-01-15T06:15:25.030Z,,,b,,,315,349.75500000000466,timeout,e.jpg,,,198804.80000001192,198804.30000001192,198290.649,198439.80000001192,198307.304,198657.059,
トライアル,flow.Sequence,11_10,2023-01-15T06:15:25.030Z,,,b,,,315,2578.871000011917,completion,e.jpg,,,198805.5,198804.30000001192,196372.60000000894,196373.90000000596,196225.429,198657.059,
空白時間1 (0.5秒),canvas.Screen,11_11_0,2023-01-15T06:15:25.382Z,,,d,,,225,349.75500000000466,timeout,eR.jpg,,,199156.90000000596,199156.40000000596,198804.30000001192,198805.70000000298,198657.059,199006.814,
注視(1秒),canvas.Screen,11_11_1,2023-01-15T06:15:26.224Z,,,d,,,225,849.4049999999988,timeout,eR.jpg,,,199999.60000000894,199999.20000000298,199156.40000000596,199157.20000000298,199006.814,199856.219,
空白時間2 (0.5秒),canvas.Screen,11_11_2,2023-01-15T06:15:26.582Z,,,d,,,225,349.75499999997555,timeout,eR.jpg,,,200357,200356.5,199999.20000000298,200000,199856.219,200205.974,
刺激提示,canvas.Screen,11_11_3,2023-01-15T06:15:27.164Z,,,d,true,d,225,726.0260000000126,response,eR.jpg,d,keypress(j),200939,200932,200356.5,200357.40000000596,200205.974,200805.554,
フィードバック(0.5秒),canvas.Screen,11_11_4,2023-01-15T06:15:27.531Z,,,d,,,225,349.75500000000466,timeout,eR.jpg,,,201306.40000000596,201305.90000000596,200788.899,200941.20000000298,200805.554,201155.309,
トライアル,flow.Sequence,11_11,2023-01-15T06:15:27.532Z,,,d,,,225,2648.841000005952,completion,eR.jpg,,,201307,201305.90000000596,198804.30000001192,198805.70000000298,198657.059,201155.309,
空白時間1 (0.5秒),canvas.Screen,11_12_0,2023-01-15T06:15:27.883Z,,,b,,,270,349.75500000000466,timeout,e.jpg,,,201658.30000001192,201657.80000001192,201305.90000000596,201307.30000001192,201155.309,201505.064,
注視(1秒),canvas.Screen,11_12_1,2023-01-15T06:15:28.721Z,,,b,,,270,849.7819999999774,timeout,e.jpg,,,202495.60000000894,202495.10000000894,201657.80000001192,201658.70000000298,201505.064,202354.846,
空白時間2 (0.5秒),canvas.Screen,11_12_2,2023-01-15T06:15:29.078Z,,,b,,,270,349.75500000000466,timeout,e.jpg,,,202852.90000000596,202852.40000000596,202495.10000000894,202496,202354.846,202704.601,
刺激提示,canvas.Screen,11_12_3,2023-01-15T06:15:29.598Z,,,b,true,b,270,662.0990000029851,response,e.jpg,b,keypress(f),203373.40000000596,203366.70000000298,202852.40000000596,202853.30000001192,202704.601,203254.216,
フィードバック(0.5秒),canvas.Screen,11_12_4,2023-01-15T06:15:29.974Z,,,b,,,270,349.75500000000466,timeout,e.jpg,,,203748.90000000596,203748.40000000596,203220.906,203375.40000000596,203254.216,203603.971,
トライアル,flow.Sequence,11_12,2023-01-15T06:15:29.974Z,,,b,,,270,2593.091000005952,completion,e.jpg,,,203749.60000000894,203748.40000000596,201305.90000000596,201307.10000000894,201155.309,203603.971,
空白時間1 (0.5秒),canvas.Screen,11_13_0,2023-01-15T06:15:30.331Z,,,d,,,90,349.75500000000466,timeout,eR.jpg,,,204106.40000000596,204105.90000000596,203748.40000000596,203749.80000001192,203603.971,203953.726,
注視(1秒),canvas.Screen,11_13_1,2023-01-15T06:15:31.174Z,,,d,,,90,849.4049999999988,timeout,eR.jpg,,,204949,204948.5,204105.90000000596,204106.80000001192,203953.726,204803.131,
空白時間2 (0.5秒),canvas.Screen,11_13_2,2023-01-15T06:15:31.531Z,,,d,,,90,349.75500000000466,timeout,eR.jpg,,,205306.30000001192,205305.90000000596,204948.5,204949.30000001192,204803.131,205152.886,
刺激提示,canvas.Screen,11_13_3,2023-01-15T06:15:32.147Z,,,d,true,d,90,763.1140000000014,response,eR.jpg,d,keypress(j),205922.20000000298,205916,205305.90000000596,205306.70000000298,205152.886,205785.776,
フィードバック(0.5秒),canvas.Screen,11_13_4,2023-01-15T06:15:32.513Z,,,d,,,90,349.75499999997555,timeout,eR.jpg,,,206287.60000000894,206287.10000000894,205769.121,205924.40000000596,205785.776,206135.531,
トライアル,flow.Sequence,11_13,2023-01-15T06:15:32.513Z,,,d,,,90,2683.1290000089502,completion,eR.jpg,,,206288.30000001192,206287.10000000894,203748.40000000596,203749.80000001192,203603.971,206135.531,
空白時間1 (0.5秒),canvas.Screen,11_14_0,2023-01-15T06:15:32.865Z,,,b,,,90,349.75500000000466,timeout,e.jpg,,,206639.70000000298,206639.20000000298,206287.10000000894,206288.60000000894,206135.531,206485.286,
注視(1秒),canvas.Screen,11_14_1,2023-01-15T06:15:33.707Z,,,b,,,90,849.4049999999988,timeout,e.jpg,,,207482.40000000596,207481.90000000596,206639.20000000298,206640,206485.286,207334.691,
空白時間2 (0.5秒),canvas.Screen,11_14_2,2023-01-15T06:15:34.065Z,,,b,,,90,349.75500000000466,timeout,e.jpg,,,207839.70000000298,207839.30000001192,207481.90000000596,207482.70000000298,207334.691,207684.446,
刺激提示,canvas.Screen,11_14_3,2023-01-15T06:15:34.593Z,,,b,true,b,90,677.3540000119247,response,e.jpg,b,keypress(f),208368.30000001192,208361.80000001192,207839.30000001192,207840.10000000894,207684.446,208250.716,
フィードバック(0.5秒),canvas.Screen,11_14_4,2023-01-15T06:15:34.971Z,,,b,,,90,349.75500000000466,timeout,e.jpg,,,208746.20000000298,208745.70000000298,208217.406,208370.40000000596,208250.716,208600.471,
トライアル,flow.Sequence,11_14,2023-01-15T06:15:34.972Z,,,b,,,90,2610.169000002992,completion,e.jpg,,,208746.80000001192,208745.70000000298,206287.10000000894,206288.5,206135.531,208600.471,
空白時間1 (0.5秒),canvas.Screen,11_15_0,2023-01-15T06:15:35.329Z,,,b,,,225,349.75500000000466,timeout,e.jpg,,,209103.70000000298,209103.20000000298,208745.70000000298,208747,208600.471,208950.226,
注視(1秒),canvas.Screen,11_15_1,2023-01-15T06:15:36.171Z,,,b,,,225,849.4049999999988,timeout,e.jpg,,,209946.30000001192,209945.80000001192,209103.20000000298,209104,208950.226,209799.631,
空白時間2 (0.5秒),canvas.Screen,11_15_2,2023-01-15T06:15:36.529Z,,,b,,,225,349.75500000000466,timeout,e.jpg,,,210303.80000001192,210303.20000000298,209945.80000001192,209946.60000000894,209799.631,210149.386,
刺激提示,canvas.Screen,11_15_3,2023-01-15T06:15:37.154Z,,,b,false,b,225,776.6140000000014,response,e.jpg,d,keypress(j),210929.5,210926,210303.20000000298,210304.10000000894,210149.386,210798.931,
フィードバック(0.5秒),canvas.Screen,11_15_4,2023-01-15T06:15:37.520Z,,,b,,,225,349.75499999997555,timeout,e.jpg,,,211295,211294.80000001192,210782.276,210930.80000001192,210798.931,211148.686,
トライアル,flow.Sequence,11_15,2023-01-15T06:15:37.520Z,,,b,,,225,2694.3290000119305,completion,e.jpg,,,211295.20000000298,211294.80000001192,208745.70000000298,208747,208600.471,211148.686,
タスクのセット,flow.Loop,11,2023-01-15T06:15:37.520Z,,,,,,,42334.77000001192,completion,,,,211295.30000001192,211294.80000001192,169108.5,169110.10000000894,168960.03,211148.686,
空白時間1 (0.5秒),canvas.Screen,12_0_0,2023-01-15T06:15:37.871Z,,,b,,,225,349.75500000000466,timeout,e.jpg,,,211646.10000000894,211645.80000001192,211294.80000001192,211295.40000000596,211148.686,211498.441,
注視(1秒),canvas.Screen,12_0_1,2023-01-15T06:15:38.715Z,,,b,,,225,849.4049999999988,timeout,e.jpg,,,212490.40000000596,212490,211645.80000001192,211646.20000000298,211498.441,212347.846,
空白時間2 (0.5秒),canvas.Screen,12_0_2,2023-01-15T06:15:39.199Z,,,b,,,225,500.0570000000007,timeout,e.jpg,,,212974.5,212831.248,212490,212490.80000001192,212347.846,212847.903,
刺激提示,canvas.Screen,12_0_3,2023-01-15T06:15:40.279Z,,,b,true,b,225,1199.0970000000088,response,e.jpg,b,keypress(f),214054,214047,212831.248,212974.80000001192,212847.903,213930.478,
フィードバック(0.5秒),canvas.Screen,12_0_4,2023-01-15T06:15:40.651Z,,,b,,,225,349.75500000000466,timeout,e.jpg,,,214426.30000001192,214425.80000001192,213913.823,214056.20000000298,213930.478,214280.233,
トライアル,flow.Sequence,12_0,2023-01-15T06:15:40.652Z,,,b,,,225,3277.114000011934,completion,e.jpg,,,214427,214425.80000001192,211294.80000001192,211295.40000000596,211148.686,214280.233,
空白時間1 (0.5秒),canvas.Screen,12_1_0,2023-01-15T06:15:41.014Z,,,d,,,315,366.4100000000035,timeout,eR.jpg,,,214789.10000000894,214788.5,214425.80000001192,214427.20000000298,214280.233,214646.643,
注視(1秒),canvas.Screen,12_1_1,2023-01-15T06:15:41.868Z,,,d,,,315,849.4049999999988,timeout,eR.jpg,,,215642.60000000894,215642.10000000894,214788.5,214789.40000000596,214646.643,215496.048,
空白時間2 (0.5秒),canvas.Screen,12_1_2,2023-01-15T06:15:42.225Z,,,d,,,315,349.75500000000466,timeout,eR.jpg,,,215999.60000000894,215999.20000000298,215642.10000000894,215642.90000000596,215496.048,215845.803,
刺激提示,canvas.Screen,12_1_3,2023-01-15T06:15:42.919Z,,,d,true,d,315,840.097000005946,response,eR.jpg,d,keypress(j),216693.80000001192,216685.90000000596,215999.20000000298,215999.90000000596,215845.803,216561.968,
フィードバック(0.5秒),canvas.Screen,12_1_4,2023-01-15T06:15:43.286Z,,,d,,,315,349.75500000000466,timeout,eR.jpg,,,217061,217060.5,216545.313,216695.60000000894,216561.968,216911.723,
トライアル,flow.Sequence,12_1,2023-01-15T06:15:43.287Z,,,d,,,315,2780.2669999999925,completion,eR.jpg,,,217061.60000000894,217060.5,214425.80000001192,214427.10000000894,214280.233,216911.723,
空白時間1 (0.5秒),canvas.Screen,12_2_0,2023-01-15T06:15:43.638Z,,,b,,,0,349.75500000000466,timeout,e.jpg,,,217413,217412.5,217060.5,217061.90000000596,216911.723,217261.478,
注視(1秒),canvas.Screen,12_2_1,2023-01-15T06:15:44.486Z,,,b,,,0,849.4049999999988,timeout,e.jpg,,,218260.90000000596,218260.5,217412.5,217413.30000001192,217261.478,218110.883,
空白時間2 (0.5秒),canvas.Screen,12_2_2,2023-01-15T06:15:44.833Z,,,b,,,0,349.75500000000466,timeout,e.jpg,,,218607.80000001192,218607.20000000298,218260.5,218261.30000001192,218110.883,218460.638,
刺激提示,canvas.Screen,12_2_3,2023-01-15T06:15:45.452Z,,,b,true,b,0,759.8619999999937,response,e.jpg,b,keypress(f),219227,219220.5,218607.20000000298,218608.10000000894,218460.638,219093.528,
フィードバック(0.5秒),canvas.Screen,12_2_4,2023-01-15T06:15:45.820Z,,,b,,,0,349.75500000000466,timeout,e.jpg,,,219594.5,219594,219076.873,219229.20000000298,219093.528,219443.283,
トライアル,flow.Sequence,12_2,2023-01-15T06:15:45.820Z,,,b,,,0,2682.277000000002,completion,e.jpg,,,219595.10000000894,219594,217060.5,217061.80000001192,216911.723,219443.283,
空白時間1 (0.5秒),canvas.Screen,12_3_0,2023-01-15T06:15:46.171Z,,,d,,,180,349.75500000000466,timeout,eR.jpg,,,219946.30000001192,219945.80000001192,219594,219595.40000000596,219443.283,219793.038,
注視(1秒),canvas.Screen,12_3_1,2023-01-15T06:15:47.013Z,,,d,,,180,849.4049999999988,timeout,eR.jpg,,,220788.10000000894,220787.90000000596,219945.80000001192,219946.70000000298,219793.038,220642.443,
空白時間2 (0.5秒),canvas.Screen,12_3_2,2023-01-15T06:15:47.371Z,,,d,,,180,349.75500000000466,timeout,eR.jpg,,,221146.30000001192,221145.90000000596,220787.90000000596,220788.40000000596,220642.443,220992.198,
刺激提示,canvas.Screen,12_3_3,2023-01-15T06:15:48.383Z,,,d,true,d,180,1162.4020000089367,response,eR.jpg,d,keypress(j),222157.5,222154.60000000894,221145.90000000596,221146.80000001192,220992.198,222024.808,
フィードバック(0.5秒),canvas.Screen,12_3_4,2023-01-15T06:15:48.747Z,,,d,,,180,349.75500000000466,timeout,eR.jpg,,,222522.20000000298,222521.80000001192,222008.153,222158.70000000298,222024.808,222374.563,
トライアル,flow.Sequence,12_3,2023-01-15T06:15:48.748Z,,,d,,,180,3078.517000011925,completion,eR.jpg,,,222522.90000000596,222521.80000001192,219594,219595.30000001192,219443.283,222374.563,
空白時間1 (0.5秒),canvas.Screen,12_4_0,2023-01-15T06:15:49.225Z,,,b,,,90,500.0260000000126,timeout,e.jpg,,,223000.20000000298,222857.934,222521.80000001192,222523.10000000894,222374.563,222874.589,
注視(1秒),canvas.Screen,12_4_1,2023-01-15T06:15:50.091Z,,,b,,,90,849.4049999999988,timeout,e.jpg,,,223866.20000000298,223865.80000001192,222857.934,223000.5,222874.589,223723.994,
空白時間2 (0.5秒),canvas.Screen,12_4_2,2023-01-15T06:15:50.449Z,,,b,,,90,349.75500000000466,timeout,e.jpg,,,224223.70000000298,224223.20000000298,223865.80000001192,223866.60000000894,223723.994,224073.749,
刺激提示,canvas.Screen,12_4_3,2023-01-15T06:15:51.017Z,,,b,true,b,90,711.1510000059498,response,e.jpg,b,keypress(f),224791.70000000298,224784.90000000596,224223.20000000298,224224.30000001192,224073.749,224656.674,
フィードバック(0.5秒),canvas.Screen,12_4_4,2023-01-15T06:15:51.383Z,,,b,,,90,349.75500000000466,timeout,e.jpg,,,225157.40000000596,225157.20000000298,224640.019,224793.90000000596,224656.674,225006.429,
トライアル,flow.Sequence,12_4,2023-01-15T06:15:51.383Z,,,b,,,90,2782.6370000029856,completion,e.jpg,,,225157.70000000298,225157.20000000298,222521.80000001192,222523.10000000894,222374.563,225006.429,
空白時間1 (0.5秒),canvas.Screen,12_5_0,2023-01-15T06:15:51.734Z,,,b,,,180,349.75500000000466,timeout,e.jpg,,,225508.40000000596,225508.20000000298,225157.20000000298,225157.70000000298,225006.429,225356.184,
注視(1秒),canvas.Screen,12_5_1,2023-01-15T06:15:52.577Z,,,b,,,180,849.4049999999988,timeout,e.jpg,,,226351.80000001192,226351.30000001192,225508.20000000298,225508.5,225356.184,226205.589,
空白時間2 (0.5秒),canvas.Screen,12_5_2,2023-01-15T06:15:52.928Z,,,b,,,180,349.75500000000466,timeout,e.jpg,,,226702.30000001192,226701.80000001192,226351.30000001192,226352.20000000298,226205.589,226555.344,
刺激提示,canvas.Screen,12_5_3,2023-01-15T06:15:53.862Z,,,b,true,b,180,1074.5560000059486,response,e.jpg,b,keypress(f),227636.70000000298,227629.90000000596,226701.80000001192,226702.70000000298,226555.344,227504.679,
フィードバック(0.5秒),canvas.Screen,12_5_4,2023-01-15T06:15:54.230Z,,,b,,,180,349.75500000000466,timeout,e.jpg,,,228005,228004.5,227488.024,227638.80000001192,227504.679,227854.434,
トライアル,flow.Sequence,12_5,2023-01-15T06:15:54.231Z,,,b,,,180,2998.0709999999963,completion,e.jpg,,,228005.60000000894,228004.5,225157.20000000298,225157.70000000298,225006.429,227854.434,
空白時間1 (0.5秒),canvas.Screen,12_6_0,2023-01-15T06:15:54.582Z,,,b,,,270,349.75500000000466,timeout,e.jpg,,,228357,228356.5,228004.5,228006,227854.434,228204.189,
注視(1秒),canvas.Screen,12_6_1,2023-01-15T06:15:55.425Z,,,b,,,270,849.4049999999988,timeout,e.jpg,,,229199.60000000894,229199.10000000894,228356.5,228357.30000001192,228204.189,229053.594,
空白時間2 (0.5秒),canvas.Screen,12_6_2,2023-01-15T06:15:55.777Z,,,b,,,270,349.75499999997555,timeout,e.jpg,,,229551.70000000298,229551.30000001192,229199.10000000894,229200.10000000894,229053.594,229403.349,
刺激提示,canvas.Screen,12_6_3,2023-01-15T06:15:56.447Z,,,b,true,b,270,811.551000005973,response,e.jpg,b,keypress(f),230221.5,230214.90000000596,229551.30000001192,229552.10000000894,229403.349,230102.859,
フィードバック(0.5秒),canvas.Screen,12_6_4,2023-01-15T06:15:56.833Z,,,b,,,270,349.75500000000466,timeout,e.jpg,,,230607.60000000894,230607.10000000894,230069.549,230223.40000000596,230102.859,230452.614,
トライアル,flow.Sequence,12_6,2023-01-15T06:15:56.833Z,,,b,,,270,2752.6660000089323,completion,e.jpg,,,230608.20000000298,230607.10000000894,228004.5,228005.90000000596,227854.434,230452.614,
空白時間1 (0.5秒),canvas.Screen,12_7_0,2023-01-15T06:15:57.180Z,,,b,,,135,349.75500000000466,timeout,e.jpg,,,230954.40000000596,230953.80000001192,230607.10000000894,230608.60000000894,230452.614,230802.369,
注視(1秒),canvas.Screen,12_7_1,2023-01-15T06:15:58.022Z,,,b,,,135,849.4049999999988,timeout,e.jpg,,,231797,231796.5,230953.80000001192,230954.70000000298,230802.369,231651.774,
空白時間2 (0.5秒),canvas.Screen,12_7_2,2023-01-15T06:15:58.380Z,,,b,,,135,349.75500000000466,timeout,e.jpg,,,232154.40000000596,232153.90000000596,231796.5,231797.30000001192,231651.774,232001.529,
刺激提示,canvas.Screen,12_7_3,2023-01-15T06:15:59.290Z,,,b,true,b,135,1056.371000005951,response,e.jpg,b,keypress(f),233064.90000000596,233057.90000000596,232153.90000000596,232154.70000000298,232001.529,232934.209,
フィードバック(0.5秒),canvas.Screen,12_7_4,2023-01-15T06:15:59.786Z,,,b,,,135,500.0460000000021,timeout,e.jpg,,,233560.80000001192,233417.6,232917.554,233067,232934.209,233434.255,
トライアル,flow.Sequence,12_7,2023-01-15T06:15:59.787Z,,,b,,,135,2964.9860000000044,completion,e.jpg,,,233561.40000000596,233417.6,230607.10000000894,230608.40000000596,230452.614,233434.255,
空白時間1 (0.5秒),canvas.Screen,12_8_0,2023-01-15T06:16:00.156Z,,,b,,,315,349.75500000000466,timeout,e.jpg,,,233930.40000000596,233929.80000001192,233417.6,233561.70000000298,233434.255,233784.01,
注視(1秒),canvas.Screen,12_8_1,2023-01-15T06:16:01.004Z,,,b,,,315,849.4049999999988,timeout,e.jpg,,,234778.30000001192,234777.80000001192,233929.80000001192,233930.70000000298,233784.01,234633.415,
空白時間2 (0.5秒),canvas.Screen,12_8_2,2023-01-15T06:16:01.356Z,,,b,,,315,349.75500000000466,timeout,e.jpg,,,235130.40000000596,235129.90000000596,234777.80000001192,234778.70000000298,234633.415,234983.17,
刺激提示,canvas.Screen,12_8_3,2023-01-15T06:16:01.887Z,,,b,true,b,315,671.6300000119081,response,e.jpg,b,keypress(f),235661.60000000894,235654.80000001192,235129.90000000596,235130.70000000298,234983.17,235532.785,
フィードバック(0.5秒),canvas.Screen,12_8_4,2023-01-15T06:16:02.262Z,,,b,,,315,349.75500000000466,timeout,e.jpg,,,236037,236036.5,235516.13,235663.90000000596,235532.785,235882.54,
トライアル,flow.Sequence,12_8,2023-01-15T06:16:02.263Z,,,b,,,315,2602.2449999999953,completion,e.jpg,,,236037.60000000894,236036.5,233417.6,233561.70000000298,233434.255,235882.54,
空白時間1 (0.5秒),canvas.Screen,12_9_0,2023-01-15T06:16:02.609Z,,,b,,,45,349.75500000000466,timeout,e.jpg,,,236383.60000000894,236383.10000000894,236036.5,236037.90000000596,235882.54,236232.295,
注視(1秒),canvas.Screen,12_9_1,2023-01-15T06:16:03.452Z,,,b,,,45,849.4049999999988,timeout,e.jpg,,,237226.30000001192,237225.90000000596,236383.10000000894,236383.90000000596,236232.295,237081.7,
空白時間2 (0.5秒),canvas.Screen,12_9_2,2023-01-15T06:16:03.809Z,,,b,,,45,349.75499999997555,timeout,e.jpg,,,237583.70000000298,237583.20000000298,237225.90000000596,237226.80000001192,237081.7,237431.455,
刺激提示,canvas.Screen,12_9_3,2023-01-15T06:16:04.344Z,,,b,true,b,45,679.9450000059733,response,e.jpg,b,keypress(f),238118.60000000894,238111.40000000596,237583.20000000298,237584,237431.455,237997.725,
フィードバック(0.5秒),canvas.Screen,12_9_4,2023-01-15T06:16:04.726Z,,,b,,,45,349.75500000000466,timeout,e.jpg,,,238501,238500.60000000894,237981.07,238120.70000000298,237997.725,238347.48,
トライアル,flow.Sequence,12_9,2023-01-15T06:16:04.727Z,,,b,,,45,2618.0600000089325,completion,e.jpg,,,238501.70000000298,238500.60000000894,236036.5,236037.80000001192,235882.54,238347.48,
空白時間1 (0.5秒),canvas.Screen,12_10_0,2023-01-15T06:16:05.068Z,,,d,,,90,349.75499999997555,timeout,eR.jpg,,,238842.30000001192,238841.80000001192,238500.60000000894,238501.90000000596,238347.48,238697.235,
注視(1秒),canvas.Screen,12_10_1,2023-01-15T06:16:05.916Z,,,d,,,90,849.4050000000279,timeout,eR.jpg,,,239690.40000000596,239689.90000000596,238841.80000001192,238842.70000000298,238697.235,239546.64,
空白時間2 (0.5秒),canvas.Screen,12_10_2,2023-01-15T06:16:06.272Z,,,d,,,90,349.75499999997555,timeout,eR.jpg,,,240047,240046.60000000894,239689.90000000596,239690.70000000298,239546.64,239896.395,
刺激提示,canvas.Screen,12_10_3,2023-01-15T06:16:07.066Z,,,d,true,d,90,937.5050000059709,response,eR.jpg,d,keypress(j),240840.80000001192,240833.90000000596,240046.60000000894,240047.40000000596,239896.395,240712.49,
フィードバック(0.5秒),canvas.Screen,12_10_4,2023-01-15T06:16:07.435Z,,,d,,,90,349.75500000000466,timeout,eR.jpg,,,241209.70000000298,241209.5,240695.835,240842.90000000596,240712.49,241062.245,
トライアル,flow.Sequence,12_10,2023-01-15T06:16:07.435Z,,,d,,,90,2862.0199999999895,completion,eR.jpg,,,241210,241209.5,238500.60000000894,238501.80000001192,238347.48,241062.245,
空白時間1 (0.5秒),canvas.Screen,12_11_0,2023-01-15T06:16:07.787Z,,,d,,,270,349.75500000000466,timeout,eR.jpg,,,241561.80000001192,241561.60000000894,241209.5,241210.10000000894,241062.245,241412,
注視(1秒),canvas.Screen,12_11_1,2023-01-15T06:16:08.630Z,,,d,,,270,849.4049999999988,timeout,eR.jpg,,,242405,242404.60000000894,241561.60000000894,241562,241412,242261.405,
空白時間2 (0.5秒),canvas.Screen,12_11_2,2023-01-15T06:16:08.988Z,,,d,,,270,349.75500000000466,timeout,eR.jpg,,,242762.30000001192,242761.80000001192,242404.60000000894,242405.40000000596,242261.405,242611.16,
刺激提示,canvas.Screen,12_11_3,2023-01-15T06:16:09.657Z,,,d,true,d,270,813.740000005957,response,eR.jpg,d,keypress(j),243432.10000000894,243424.90000000596,242761.80000001192,242762.60000000894,242611.16,243310.67,
フィードバック(0.5秒),canvas.Screen,12_11_4,2023-01-15T06:16:10.162Z,,,d,,,270,500.03899999998976,timeout,eR.jpg,,,243936.40000000596,243794.054,243294.015,243434.10000000894,243310.67,243810.709,
トライアル,flow.Sequence,12_11,2023-01-15T06:16:10.162Z,,,d,,,270,2731.8090000000084,completion,eR.jpg,,,243936.90000000596,243794.054,241209.5,241210.10000000894,241062.245,243810.709,
空白時間1 (0.5秒),canvas.Screen,12_12_0,2023-01-15T06:16:10.534Z,,,d,,,45,349.75500000000466,timeout,eR.jpg,,,244309.10000000894,244308.70000000298,243794.054,243937.20000000298,243810.709,244160.464,
注視(1秒),canvas.Screen,12_12_1,2023-01-15T06:16:11.382Z,,,d,,,45,849.4049999999988,timeout,eR.jpg,,,245157,245156.5,244308.70000000298,244309.5,244160.464,245009.869,
空白時間2 (0.5秒),canvas.Screen,12_12_2,2023-01-15T06:16:11.740Z,,,d,,,45,349.75500000000466,timeout,eR.jpg,,,245514.40000000596,245513.90000000596,245156.5,245157.30000001192,245009.869,245359.624,
刺激提示,canvas.Screen,12_12_3,2023-01-15T06:16:12.310Z,,,d,true,d,45,718.0760000029695,response,eR.jpg,d,keypress(j),246084.80000001192,246077.70000000298,245513.90000000596,245514.70000000298,245359.624,245959.204,
フィードバック(0.5秒),canvas.Screen,12_12_4,2023-01-15T06:16:12.684Z,,,d,,,45,349.75500000000466,timeout,eR.jpg,,,246458.40000000596,246457.90000000596,245942.549,246087,245959.204,246308.959,
トライアル,flow.Sequence,12_12,2023-01-15T06:16:12.684Z,,,d,,,45,2647.191000005958,completion,eR.jpg,,,246459.10000000894,246457.90000000596,243794.054,243937,243810.709,246308.959,
空白時間1 (0.5秒),canvas.Screen,12_13_0,2023-01-15T06:16:13.036Z,,,d,,,135,349.75500000000466,timeout,eR.jpg,,,246810.30000001192,246809.90000000596,246457.90000000596,246459.30000001192,246308.959,246658.714,
注視(1秒),canvas.Screen,12_13_1,2023-01-15T06:16:13.878Z,,,d,,,135,849.4049999999988,timeout,eR.jpg,,,247653,247652.60000000894,246809.90000000596,246810.70000000298,246658.714,247508.119,
空白時間2 (0.5秒),canvas.Screen,12_13_2,2023-01-15T06:16:14.241Z,,,d,,,135,366.4100000000035,timeout,eR.jpg,,,248015.70000000298,248015.30000001192,247652.60000000894,247653.40000000596,247508.119,247874.529,
刺激提示,canvas.Screen,12_13_3,2023-01-15T06:16:14.969Z,,,d,true,d,135,862.3710000059509,response,eR.jpg,d,keypress(j),248743.40000000596,248736.90000000596,248015.30000001192,248016,247874.529,248624.004,
フィードバック(0.5秒),canvas.Screen,12_13_4,2023-01-15T06:16:15.345Z,,,d,,,135,349.75500000000466,timeout,eR.jpg,,,249119.70000000298,249119.20000000298,248590.694,248745.80000001192,248624.004,248973.759,
トライアル,flow.Sequence,12_13,2023-01-15T06:16:15.346Z,,,d,,,135,2810.2410000029777,completion,eR.jpg,,,249120.40000000596,249119.20000000298,246457.90000000596,246459.30000001192,246308.959,248973.759,
空白時間1 (0.5秒),canvas.Screen,12_14_0,2023-01-15T06:16:15.702Z,,,d,,,225,349.75500000000466,timeout,eR.jpg,,,249477,249476.5,249119.20000000298,249120.60000000894,248973.759,249323.514,
注視(1秒),canvas.Screen,12_14_1,2023-01-15T06:16:16.545Z,,,d,,,225,849.4049999999988,timeout,eR.jpg,,,250319.70000000298,250319.10000000894,249476.5,249477.30000001192,249323.514,250172.919,
空白時間2 (0.5秒),canvas.Screen,12_14_2,2023-01-15T06:16:16.902Z,,,d,,,225,349.75500000000466,timeout,eR.jpg,,,250677,250676.5,250319.10000000894,250320,250172.919,250522.674,
刺激提示,canvas.Screen,12_14_3,2023-01-15T06:16:17.534Z,,,d,true,d,225,779.1260000119219,response,eR.jpg,d,keypress(j),251308.20000000298,251301.80000001192,250676.5,250677.40000000596,250522.674,251188.874,
フィードバック(0.5秒),canvas.Screen,12_14_4,2023-01-15T06:16:17.910Z,,,d,,,225,349.75499999997555,timeout,eR.jpg,,,251685,251684.5,251155.564,251310.30000001192,251188.874,251538.629,
トライアル,flow.Sequence,12_14,2023-01-15T06:16:17.911Z,,,d,,,225,2710.741000000009,completion,eR.jpg,,,251685.60000000894,251684.5,249119.20000000298,249120.60000000894,248973.759,251538.629,
空白時間1 (0.5秒),canvas.Screen,12_15_0,2023-01-15T06:16:18.268Z,,,d,,,0,349.75500000000466,timeout,eR.jpg,,,252042.30000001192,252041.90000000596,251684.5,251685.90000000596,251538.629,251888.384,
注視(1秒),canvas.Screen,12_15_1,2023-01-15T06:16:19.105Z,,,d,,,0,849.4049999999988,timeout,eR.jpg,,,252879.80000001192,252879.40000000596,252041.90000000596,252042.70000000298,251888.384,252737.789,
空白時間2 (0.5秒),canvas.Screen,12_15_2,2023-01-15T06:16:19.463Z,,,d,,,0,349.75500000000466,timeout,eR.jpg,,,253237.10000000894,253236.60000000894,252879.40000000596,252880.20000000298,252737.789,253087.544,
刺激提示,canvas.Screen,12_15_3,2023-01-15T06:16:19.932Z,,,d,true,d,0,612.0560000089463,response,eR.jpg,d,keypress(j),253706.20000000298,253699.60000000894,253236.60000000894,253237.5,253087.544,253570.539,
フィードバック(0.5秒),canvas.Screen,12_15_4,2023-01-15T06:16:20.421Z,,,d,,,0,500.0350000000035,timeout,eR.jpg,,,254195.70000000298,254053.919,253553.884,253708.20000000298,253570.539,254070.574,
トライアル,flow.Sequence,12_15,2023-01-15T06:16:20.422Z,,,d,,,0,2515.290000000008,completion,eR.jpg,,,254196.30000001192,254053.919,251684.5,251685.70000000298,251538.629,254070.574,
タスクのセット,flow.Loop,12,2023-01-15T06:16:20.422Z,,,,,,,42905.23300000001,completion,,,,254196.60000000894,254053.919,211294.80000001192,211295.30000001192,211148.686,254070.574,
空白時間1 (0.5秒),canvas.Screen,13_0_0,2023-01-15T06:16:20.796Z,,,d,,,180,349.75500000000466,timeout,eR.jpg,,,254570.40000000596,254569.90000000596,254053.919,254196.90000000596,254070.574,254420.329,
注視(1秒),canvas.Screen,13_0_1,2023-01-15T06:16:21.638Z,,,d,,,180,849.4049999999988,timeout,eR.jpg,,,255412.90000000596,255412.5,254569.90000000596,254570.70000000298,254420.329,255269.734,
空白時間2 (0.5秒),canvas.Screen,13_0_2,2023-01-15T06:16:21.996Z,,,d,,,180,349.75500000000466,timeout,eR.jpg,,,255770.40000000596,255769.90000000596,255412.5,255413.30000001192,255269.734,255619.489,
刺激提示,canvas.Screen,13_0_3,2023-01-15T06:16:22.779Z,,,d,true,d,180,927.1110000089393,response,eR.jpg,d,keypress(j),256553.70000000298,256546.60000000894,255769.90000000596,255770.70000000298,255619.489,256435.584,
フィードバック(0.5秒),canvas.Screen,13_0_4,2023-01-15T06:16:23.163Z,,,d,,,180,349.75500000000466,timeout,eR.jpg,,,256937.80000001192,256937.5,256402.274,256555.80000001192,256435.584,256785.339,
トライアル,flow.Sequence,13_0,2023-01-15T06:16:23.164Z,,,d,,,180,2866.9260000000068,completion,eR.jpg,,,256938.10000000894,256937.5,254053.919,254196.80000001192,254070.574,256785.339,
空白時間1 (0.5秒),canvas.Screen,13_1_0,2023-01-15T06:16:23.515Z,,,d,,,45,349.75500000000466,timeout,eR.jpg,,,257289.80000001192,257289.5,256937.5,256938.20000000298,256785.339,257135.094,
注視(1秒),canvas.Screen,13_1_1,2023-01-15T06:16:24.353Z,,,d,,,45,849.4049999999988,timeout,eR.jpg,,,258127.70000000298,258127.20000000298,257289.5,257289.80000001192,257135.094,257984.499,
空白時間2 (0.5秒),canvas.Screen,13_1_2,2023-01-15T06:16:24.711Z,,,d,,,45,349.75499999997555,timeout,eR.jpg,,,258485.10000000894,258484.5,258127.20000000298,258128.10000000894,257984.499,258334.254,
刺激提示,canvas.Screen,13_1_3,2023-01-15T06:16:25.284Z,,,d,true,d,45,717.446000002994,response,eR.jpg,d,keypress(j),259058.30000001192,259051.70000000298,258484.5,258485.40000000596,258334.254,258933.834,
フィードバック(0.5秒),canvas.Screen,13_1_4,2023-01-15T06:16:25.655Z,,,d,,,45,349.75500000000466,timeout,eR.jpg,,,259429,259428.5,258917.179,259060.60000000894,258933.834,259283.589,
トライアル,flow.Sequence,13_1,2023-01-15T06:16:25.655Z,,,d,,,45,2643.160999999993,completion,eR.jpg,,,259429.60000000894,259428.5,256937.5,256938.20000000298,256785.339,259283.589,
空白時間1 (0.5秒),canvas.Screen,13_2_0,2023-01-15T06:16:26.012Z,,,b,,,90,349.75500000000466,timeout,e.jpg,,,259786.30000001192,259785.80000001192,259428.5,259429.90000000596,259283.589,259633.344,
注視(1秒),canvas.Screen,13_2_1,2023-01-15T06:16:26.855Z,,,b,,,90,849.4049999999988,timeout,e.jpg,,,260629.10000000894,260628.5,259785.80000001192,259786.60000000894,259633.344,260482.749,
空白時間2 (0.5秒),canvas.Screen,13_2_2,2023-01-15T06:16:27.212Z,,,b,,,90,349.75499999997555,timeout,e.jpg,,,260986.20000000298,260985.80000001192,260628.5,260629.40000000596,260482.749,260832.504,
刺激提示,canvas.Screen,13_2_3,2023-01-15T06:16:27.764Z,,,b,true,b,90,700.0960000089544,response,e.jpg,b,keypress(f),261538.80000001192,261532.60000000894,260985.80000001192,260986.70000000298,260832.504,261415.429,
フィードバック(0.5秒),canvas.Screen,13_2_4,2023-01-15T06:16:28.140Z,,,b,,,90,349.75500000000466,timeout,e.jpg,,,261914.5,261913.90000000596,261398.774,261540.80000001192,261415.429,261765.184,
トライアル,flow.Sequence,13_2,2023-01-15T06:16:28.141Z,,,b,,,90,2630.3110000059532,completion,e.jpg,,,261915,261913.90000000596,259428.5,259429.80000001192,259283.589,261765.184,
空白時間1 (0.5秒),canvas.Screen,13_3_0,2023-01-15T06:16:28.492Z,,,b,,,135,349.75500000000466,timeout,e.jpg,,,262266.3000000119,262265.8000000119,261913.90000000596,261915.30000001192,261765.184,262114.939,
注視(1秒),canvas.Screen,13_3_1,2023-01-15T06:16:29.335Z,,,b,,,135,849.4049999999697,timeout,e.jpg,,,263109,263108.5,262265.8000000119,262266.700000003,262114.939,262964.344,
空白時間2 (0.5秒),canvas.Screen,13_3_2,2023-01-15T06:16:29.692Z,,,b,,,135,349.75500000000466,timeout,e.jpg,,,263466.3000000119,263465.90000000596,263108.5,263109.40000000596,262964.344,263314.099,
刺激提示,canvas.Screen,13_3_3,2023-01-15T06:16:30.769Z,,,b,true,b,135,1221.801000005973,response,e.jpg,b,keypress(f),264543,264535.90000000596,263465.90000000596,263466.8000000119,263314.099,264413.329,
フィードバック(0.5秒),canvas.Screen,13_3_4,2023-01-15T06:16:31.265Z,,,b,,,135,500.0569999999716,timeout,e.jpg,,,265039.200000003,264896.731,264396.674,264545.5,264413.329,264913.386,
トライアル,flow.Sequence,13_3,2023-01-15T06:16:31.265Z,,,b,,,135,3131.5470000000205,completion,e.jpg,,,265039.90000000596,264896.731,261913.90000000596,261915.20000000298,261765.184,264913.386,
空白時間1 (0.5秒),canvas.Screen,13_4_0,2023-01-15T06:16:31.644Z,,,d,,,135,349.75500000000466,timeout,eR.jpg,,,265418.40000000596,265417.90000000596,264896.731,265040.10000000894,264913.386,265263.141,
注視(1秒),canvas.Screen,13_4_1,2023-01-15T06:16:32.481Z,,,d,,,135,849.4049999999697,timeout,eR.jpg,,,266255.8000000119,266255.3000000119,265417.90000000596,265418.8000000119,265263.141,266112.546,
空白時間2 (0.5秒),canvas.Screen,13_4_2,2023-01-15T06:16:32.839Z,,,d,,,135,366.4100000000326,timeout,eR.jpg,,,266613,266612.5,266255.3000000119,266256.200000003,266112.546,266478.956,
刺激提示,canvas.Screen,13_4_3,2023-01-15T06:16:33.493Z,,,d,true,d,135,781.7440000029746,response,eR.jpg,d,keypress(j),267267.8000000119,267260.700000003,266612.5,266613.40000000596,266478.956,267145.156,
フィードバック(0.5秒),canvas.Screen,13_4_4,2023-01-15T06:16:33.868Z,,,d,,,135,349.75500000000466,timeout,eR.jpg,,,267642.3000000119,267641.8000000119,267128.501,267270.10000000894,267145.156,267494.911,
トライアル,flow.Sequence,13_4,2023-01-15T06:16:33.869Z,,,d,,,135,2728.4140000119223,completion,eR.jpg,,,267642.90000000596,267641.8000000119,264896.731,265040.10000000894,264913.386,267494.911,
空白時間1 (0.5秒),canvas.Screen,13_5_0,2023-01-15T06:16:34.225Z,,,b,,,315,349.75500000000466,timeout,e.jpg,,,267999.700000003,267999.200000003,267641.8000000119,267643.200000003,267494.911,267844.666,
注視(1秒),canvas.Screen,13_5_1,2023-01-15T06:16:35.063Z,,,b,,,315,849.4049999999697,timeout,e.jpg,,,268837.700000003,268837.3000000119,267999.200000003,268000.10000000894,267844.666,268694.071,
空白時間2 (0.5秒),canvas.Screen,13_5_2,2023-01-15T06:16:35.425Z,,,b,,,315,366.4100000000326,timeout,e.jpg,,,269199.60000000894,269199.10000000894,268837.3000000119,268838.10000000894,268694.071,269060.481,
刺激提示,canvas.Screen,13_5_3,2023-01-15T06:16:36.054Z,,,b,true,b,315,761.4190000059316,response,e.jpg,b,keypress(f),269828.40000000596,269821.90000000596,269199.10000000894,269199.90000000596,269060.481,269710.026,
フィードバック(0.5秒),canvas.Screen,13_5_4,2023-01-15T06:16:36.439Z,,,b,,,315,349.75500000000466,timeout,e.jpg,,,270213,270212.5,269676.716,269830.5,269710.026,270059.781,
トライアル,flow.Sequence,13_5,2023-01-15T06:16:36.439Z,,,b,,,315,2717.588999999978,completion,e.jpg,,,270213.700000003,270212.5,267641.8000000119,267643.10000000894,267494.911,270059.781,
空白時間1 (0.5秒),canvas.Screen,13_6_0,2023-01-15T06:16:36.791Z,,,b,,,180,349.75500000000466,timeout,e.jpg,,,270564.90000000596,270564.40000000596,270212.5,270213.90000000596,270059.781,270409.536,
注視(1秒),canvas.Screen,13_6_1,2023-01-15T06:16:37.633Z,,,b,,,180,849.4049999999697,timeout,e.jpg,,,271407.40000000596,271406.90000000596,270564.40000000596,270565.3000000119,270409.536,271258.941,
空白時間2 (0.5秒),canvas.Screen,13_6_2,2023-01-15T06:16:37.985Z,,,b,,,180,349.75500000000466,timeout,e.jpg,,,271759.60000000894,271759.200000003,271406.90000000596,271407.8000000119,271258.941,271608.696,
刺激提示,canvas.Screen,13_6_3,2023-01-15T06:16:39.196Z,,,b,true,b,180,1354.9040000089444,response,e.jpg,b,keypress(f),272970.40000000596,272963.60000000894,271759.200000003,271760,271608.696,272841.166,
フィードバック(0.5秒),canvas.Screen,13_6_4,2023-01-15T06:16:39.563Z,,,b,,,180,349.75499999994645,timeout,e.jpg,,,273337.8000000119,273337.60000000894,272824.511,272972.700000003,272841.166,273190.921,
トライアル,flow.Sequence,13_6,2023-01-15T06:16:39.564Z,,,b,,,180,3277.8190000089235,completion,e.jpg,,,273338,273337.60000000894,270212.5,270213.90000000596,270059.781,273190.921,
空白時間1 (0.5秒),canvas.Screen,13_7_0,2023-01-15T06:16:39.916Z,,,b,,,45,349.75500000000466,timeout,e.jpg,,,273689.8000000119,273689.700000003,273337.60000000894,273338.10000000894,273190.921,273540.676,
注視(1秒),canvas.Screen,13_7_1,2023-01-15T06:16:40.759Z,,,b,,,45,849.4050000000279,timeout,e.jpg,,,274533.200000003,274532.700000003,273689.700000003,273690,273540.676,274390.081,
空白時間2 (0.5秒),canvas.Screen,13_7_2,2023-01-15T06:16:41.111Z,,,b,,,45,349.75500000000466,timeout,e.jpg,,,274885,274884.40000000596,274532.700000003,274533.60000000894,274390.081,274739.836,
刺激提示,canvas.Screen,13_7_3,2023-01-15T06:16:41.576Z,,,b,true,b,45,603.36400000297,response,e.jpg,b,keypress(f),275349.8000000119,275343.200000003,274884.40000000596,274885.3000000119,274739.836,275223.219,
フィードバック(0.5秒),canvas.Screen,13_7_4,2023-01-15T06:16:41.954Z,,,b,,,45,366.4100000000326,timeout,e.jpg,,,275728.40000000596,275727.90000000596,275206.564,275352.10000000894,275223.219,275589.629,
トライアル,flow.Sequence,13_7,2023-01-15T06:16:41.955Z,,,b,,,45,2536.9790000059875,completion,e.jpg,,,275729,275727.90000000596,273337.60000000894,273338.10000000894,273190.921,275589.629,
空白時間1 (0.5秒),canvas.Screen,13_8_0,2023-01-15T06:16:42.311Z,,,d,,,315,349.75500000000466,timeout,eR.jpg,,,276084.90000000596,276084.3000000119,275727.90000000596,275729.3000000119,275589.629,275939.384,
注視(1秒),canvas.Screen,13_8_1,2023-01-15T06:16:43.159Z,,,d,,,315,849.4049999999697,timeout,eR.jpg,,,276933,276932.5,276084.3000000119,276085.200000003,275939.384,276788.789,
空白時間2 (0.5秒),canvas.Screen,13_8_2,2023-01-15T06:16:43.521Z,,,d,,,315,366.4100000000326,timeout,eR.jpg,,,277295.700000003,277295.200000003,276932.5,276933.40000000596,276788.789,277155.199,
刺激提示,canvas.Screen,13_8_3,2023-01-15T06:16:44.160Z,,,d,false,d,315,771.5010000029579,response,eR.jpg,b,keypress(f),277934.200000003,277926.700000003,277295.200000003,277296,277155.199,277804.744,
フィードバック(0.5秒),canvas.Screen,13_8_4,2023-01-15T06:16:44.529Z,,,d,,,315,349.75500000000466,timeout,eR.jpg,,,278303.700000003,278303.200000003,277788.089,277936.40000000596,277804.744,278154.499,
トライアル,flow.Sequence,13_8,2023-01-15T06:16:44.530Z,,,d,,,315,2713.571000002965,completion,eR.jpg,,,278304.3000000119,278303.200000003,275727.90000000596,275729.3000000119,275589.629,278154.499,
空白時間1 (0.5秒),canvas.Screen,13_9_0,2023-01-15T06:16:44.881Z,,,d,,,270,349.75500000000466,timeout,eR.jpg,,,278655.700000003,278655.200000003,278303.200000003,278304.700000003,278154.499,278504.254,
注視(1秒),canvas.Screen,13_9_1,2023-01-15T06:16:45.724Z,,,d,,,270,849.4049999999697,timeout,eR.jpg,,,279497.90000000596,279497.5,278655.200000003,278656.10000000894,278504.254,279353.659,
空白時間2 (0.5秒),canvas.Screen,13_9_2,2023-01-15T06:16:46.081Z,,,d,,,270,349.75500000000466,timeout,eR.jpg,,,279855.60000000894,279855.200000003,279497.5,279498.3000000119,279353.659,279703.414,
刺激提示,canvas.Screen,13_9_3,2023-01-15T06:16:47.541Z,,,d,true,d,270,1605.0860000000102,response,eR.jpg,d,keypress(j),281315,281308.5,279855.200000003,279855.90000000596,279703.414,281185.709,
フィードバック(0.5秒),canvas.Screen,13_9_4,2023-01-15T06:16:47.916Z,,,d,,,270,349.75500000000466,timeout,eR.jpg,,,281690.40000000596,281689.8000000119,281169.054,281317.200000003,281185.709,281535.464,
トライアル,flow.Sequence,13_9,2023-01-15T06:16:47.917Z,,,d,,,270,3535.30100001191,completion,eR.jpg,,,281691.10000000894,281689.8000000119,278303.200000003,278304.60000000894,278154.499,281535.464,
空白時間1 (0.5秒),canvas.Screen,13_10_0,2023-01-15T06:16:48.262Z,,,d,,,0,349.75500000000466,timeout,eR.jpg,,,282036.60000000894,282036.5,281689.8000000119,281691.3000000119,281535.464,281885.219,
注視(1秒),canvas.Screen,13_10_1,2023-01-15T06:16:49.105Z,,,d,,,0,849.4050000000279,timeout,eR.jpg,,,282879.700000003,282879.200000003,282036.5,282036.90000000596,281885.219,282734.624,
空白時間2 (0.5秒),canvas.Screen,13_10_2,2023-01-15T06:16:49.463Z,,,d,,,0,349.75500000000466,timeout,eR.jpg,,,283237,283236.5,282879.200000003,282880,282734.624,283084.379,
刺激提示,canvas.Screen,13_10_3,2023-01-15T06:16:49.999Z,,,d,true,d,0,681.5210000059451,response,eR.jpg,d,keypress(j),283772.8000000119,283765.90000000596,283236.5,283237.3000000119,283084.379,283650.649,
フィードバック(0.5秒),canvas.Screen,13_10_4,2023-01-15T06:16:50.380Z,,,d,,,0,349.75500000000466,timeout,eR.jpg,,,284154.3000000119,284153.8000000119,283633.994,283774.8000000119,283650.649,284000.404,
トライアル,flow.Sequence,13_10,2023-01-15T06:16:50.381Z,,,d,,,0,2618.336000011943,completion,eR.jpg,,,284155,284153.8000000119,281689.8000000119,281691.3000000119,281535.464,284000.404,
空白時間1 (0.5秒),canvas.Screen,13_11_0,2023-01-15T06:16:50.732Z,,,b,,,225,366.4100000000326,timeout,e.jpg,,,284506.3000000119,284505.8000000119,284153.8000000119,284155.200000003,284000.404,284366.814,
注視(1秒),canvas.Screen,13_11_1,2023-01-15T06:16:51.585Z,,,b,,,225,849.4049999999697,timeout,e.jpg,,,285359.60000000894,285359.10000000894,284505.8000000119,284506.700000003,284366.814,285216.219,
空白時間2 (0.5秒),canvas.Screen,13_11_2,2023-01-15T06:16:52.068Z,,,b,,,225,500.0430000000051,timeout,e.jpg,,,285842.40000000596,285699.607,285359.10000000894,285360,285216.219,285716.262,
刺激提示,canvas.Screen,13_11_3,2023-01-15T06:16:52.935Z,,,b,true,b,225,986.9380000029923,response,e.jpg,b,keypress(f),286709,286703.200000003,285699.607,285842.700000003,285716.262,286582.322,
フィードバック(0.5秒),canvas.Screen,13_11_4,2023-01-15T06:16:53.308Z,,,b,,,225,349.75500000000466,timeout,e.jpg,,,287082.3000000119,287081.90000000596,286565.667,286711.10000000894,286582.322,286932.077,
トライアル,flow.Sequence,13_11,2023-01-15T06:16:53.309Z,,,b,,,225,3081.49600000598,completion,e.jpg,,,287083,287081.90000000596,284153.8000000119,284155.10000000894,284000.404,286932.077,
空白時間1 (0.5秒),canvas.Screen,13_12_0,2023-01-15T06:16:53.660Z,,,d,,,225,349.75500000000466,timeout,eR.jpg,,,287434.200000003,287433.8000000119,287081.90000000596,287083.3000000119,286932.077,287281.832,
注視(1秒),canvas.Screen,13_12_1,2023-01-15T06:16:54.503Z,,,d,,,225,849.4050000000279,timeout,eR.jpg,,,288277,288276.60000000894,287433.8000000119,287434.60000000894,287281.832,288131.237,
空白時間2 (0.5秒),canvas.Screen,13_12_2,2023-01-15T06:16:54.855Z,,,d,,,225,349.75500000000466,timeout,eR.jpg,,,288629.10000000894,288628.5,288276.60000000894,288277.40000000596,288131.237,288480.992,
刺激提示,canvas.Screen,13_12_3,2023-01-15T06:16:55.489Z,,,d,true,d,225,774.7080000029528,response,eR.jpg,d,keypress(j),289263,289255.700000003,288628.5,288629.40000000596,288480.992,289130.537,
フィードバック(0.5秒),canvas.Screen,13_12_4,2023-01-15T06:16:55.857Z,,,d,,,225,349.75500000000466,timeout,eR.jpg,,,289631.10000000894,289630.90000000596,289113.882,289265.200000003,289130.537,289480.292,
トライアル,flow.Sequence,13_12,2023-01-15T06:16:55.857Z,,,d,,,225,2698.8230000059702,completion,eR.jpg,,,289631.3000000119,289630.90000000596,287081.90000000596,287083.200000003,286932.077,289480.292,
空白時間1 (0.5秒),canvas.Screen,13_13_0,2023-01-15T06:16:56.204Z,,,b,,,0,349.75500000000466,timeout,e.jpg,,,289977.8000000119,289977.60000000894,289630.90000000596,289631.40000000596,289480.292,289830.047,
注視(1秒),canvas.Screen,13_13_1,2023-01-15T06:16:57.047Z,,,b,,,0,849.4049999999697,timeout,e.jpg,,,290821,290820.5,289977.60000000894,289977.90000000596,289830.047,290679.452,
空白時間2 (0.5秒),canvas.Screen,13_13_2,2023-01-15T06:16:57.404Z,,,b,,,0,349.75500000000466,timeout,e.jpg,,,291178.40000000596,291177.90000000596,290820.5,290821.40000000596,290679.452,291029.207,
刺激提示,canvas.Screen,13_13_3,2023-01-15T06:16:57.978Z,,,b,true,b,0,716.593000011926,response,e.jpg,b,keypress(f),291752,291745.8000000119,291177.90000000596,291178.700000003,291029.207,291628.787,
フィードバック(0.5秒),canvas.Screen,13_13_4,2023-01-15T06:16:58.354Z,,,b,,,0,349.75500000000466,timeout,e.jpg,,,292127.700000003,292127.200000003,291612.132,291754.3000000119,291628.787,291978.542,
トライアル,flow.Sequence,13_13,2023-01-15T06:16:58.354Z,,,b,,,0,2646.9080000029644,completion,e.jpg,,,292128.40000000596,292127.200000003,289630.90000000596,289631.40000000596,289480.292,291978.542,
空白時間1 (0.5秒),canvas.Screen,13_14_0,2023-01-15T06:16:58.706Z,,,d,,,90,349.75500000000466,timeout,eR.jpg,,,292479.700000003,292479.3000000119,292127.200000003,292128.60000000894,291978.542,292328.297,
注視(1秒),canvas.Screen,13_14_1,2023-01-15T06:16:59.548Z,,,d,,,90,849.4049999999697,timeout,eR.jpg,,,293322.5,293322,292479.3000000119,292480,292328.297,293177.702,
空白時間2 (0.5秒),canvas.Screen,13_14_2,2023-01-15T06:16:59.906Z,,,d,,,90,349.75500000000466,timeout,eR.jpg,,,293679.700000003,293679.200000003,293322,293322.90000000596,293177.702,293527.457,
刺激提示,canvas.Screen,13_14_3,2023-01-15T06:17:00.506Z,,,d,true,d,90,746.1430000089458,response,eR.jpg,d,keypress(j),294280.10000000894,294273.60000000894,293679.200000003,293680,293527.457,294160.347,
フィードバック(0.5秒),canvas.Screen,13_14_4,2023-01-15T06:17:00.882Z,,,d,,,90,349.75500000000466,timeout,eR.jpg,,,294655.700000003,294655.200000003,294127.037,294282.200000003,294160.347,294510.102,
トライアル,flow.Sequence,13_14,2023-01-15T06:17:00.882Z,,,d,,,90,2676.6580000029644,completion,eR.jpg,,,294656.40000000596,294655.200000003,292127.200000003,292128.60000000894,291978.542,294510.102,
空白時間1 (0.5秒),canvas.Screen,13_15_0,2023-01-15T06:17:01.239Z,,,b,,,270,349.75500000000466,timeout,e.jpg,,,295012.90000000596,295012.5,294655.200000003,294656.700000003,294510.102,294859.857,
注視(1秒),canvas.Screen,13_15_1,2023-01-15T06:17:02.082Z,,,b,,,270,849.4049999999697,timeout,e.jpg,,,295855.700000003,295855.200000003,295012.5,295013.40000000596,294859.857,295709.262,
空白時間2 (0.5秒),canvas.Screen,13_15_2,2023-01-15T06:17:02.561Z,,,b,,,270,500.0439999999944,timeout,e.jpg,,,296335.200000003,296192.651,295855.200000003,295856,295709.262,296209.306,
刺激提示,canvas.Screen,13_15_3,2023-01-15T06:17:03.265Z,,,b,true,b,270,822.3940000029979,response,e.jpg,b,keypress(f),297038.90000000596,297031.700000003,296192.651,296335.700000003,296209.306,296908.816,
フィードバック(0.5秒),canvas.Screen,13_15_4,2023-01-15T06:17:03.634Z,,,b,,,270,349.75500000000466,timeout,e.jpg,,,297407.60000000894,297407.10000000894,296892.161,297041.10000000894,296908.816,297258.571,
トライアル,flow.Sequence,13_15,2023-01-15T06:17:03.634Z,,,b,,,270,2896.998000008927,completion,e.jpg,,,297408.3000000119,297407.10000000894,294655.200000003,294656.5,294510.102,297258.571,
タスクのセット,flow.Loop,13,2023-01-15T06:17:03.634Z,,,,,,,43336.52600000895,completion,,,,297408.5,297407.10000000894,254053.919,254196.80000001192,254070.574,297258.571,
休憩,canvas.Screen,14,2023-01-15T06:18:03.619Z,,,,,,,60007.965000000026,timeout,,,,357392.200000003,357249.881,297407.10000000894,297408.700000003,297258.571,357266.536,
休憩終了,html.Page,15,2023-01-15T06:18:05.927Z,,,,,,,2433.463999999978,form submission,,,,359700.10000000894,359700,357249.881,357392.5,357266.536,359567.235,
イントロ2,html.Page,16,2023-01-15T06:18:07.864Z,,,,,,,2070.065000011935,form submission,,,,361637.60000000894,361637.3000000119,359550.58,359700.200000003,359567.235,361499.215,
